pos,corr_resp,trials.thisRepN,trials.thisTrialN,trials.thisN,trials.thisIndex,trials_2.thisRepN,trials_2.thisTrialN,trials_2.thisN,trials_2.thisIndex,thisRow.t,notes,trial.started,fixation.started,line1.started,line2.started,line3.started,line4.started,fixation.stopped,probe.started,key_resp.started,trial.stopped,key_resp.keys,key_resp.corr,key_resp.rt,key_resp.duration,participant,session,date,expName,psychopyVersion,frameRate,expStart,
-50,x,0,0,0,0,,,,,0.037750600022263825,,0.031047699972987175,0.037750600022263825,1.0038312999531627,1.0038312999531627,1.0038312999531627,1.0038312999531627,1.0369749999372289,2.0037428999785334,2.0037428999785334,3.284232100006193,x,1,1.256546500022523,None,997103,001,2024-10-17_19h57.37.916,sequence learning,2024.1.5,None,2024-10-17 19h57.47.861192 +0530,
150,v,0,1,1,1,,,,,3.3032069000182673,,3.2861254999879748,3.3032069000182673,4.287212199997157,4.287212199997157,4.287212199997157,4.287212199997157,4.303818800020963,5.28704900003504,5.28704900003504,6.591401900048368,v,1,1.3011072999797761,None,997103,001,2024-10-17_19h57.37.916,sequence learning,2024.1.5,None,2024-10-17 19h57.47.861192 +0530,
50,c,0,2,2,2,,,,,6.6038444000296295,,6.592503699939698,6.6038444000296295,7.604257000028156,7.604257000028156,7.604257000028156,7.604257000028156,7.604257000028156,8.603877500048839,8.603877500048839,9.591895899968222,c,1,0.9746082999045029,None,997103,001,2024-10-17_19h57.37.916,sequence learning,2024.1.5,None,2024-10-17 19h57.47.861192 +0530,
-150,z,0,3,3,3,,,,,9.60434019996319,,9.593077600002289,9.60434019996319,10.603924699942581,10.603924699942581,10.603924699942581,10.603924699942581,10.603924699942581,11.604362300015055,11.604362300015055,12.292049700045027,z,1,0.673682100023143,None,997103,001,2024-10-17_19h57.37.916,sequence learning,2024.1.5,None,2024-10-17 19h57.47.861192 +0530,
-50,x,1,0,4,0,,,,,12.304304199991748,,12.292990799993277,12.304304199991748,13.304335099994205,13.304335099994205,13.304335099994205,13.304335099994205,13.304335099994205,14.30387659999542,14.30387659999542,14.909721000003628,x,1,0.5751634000334889,None,997103,001,2024-10-17_19h57.37.916,sequence learning,2024.1.5,None,2024-10-17 19h57.47.861192 +0530,
150,v,1,1,5,1,,,,,14.92067819996737,,14.911736199981533,14.92067819996737,15.920685600023717,15.920685600023717,15.920685600023717,15.920685600023717,15.920685600023717,16.937035799957812,16.937035799957812,18.008907999959774,v,1,1.0598325000610203,None,997103,001,2024-10-17_19h57.37.916,sequence learning,2024.1.5,None,2024-10-17 19h57.47.861192 +0530,
50,c,1,2,6,2,,,,,18.020980300032534,,18.010130899958313,18.020980300032534,19.03722239995841,19.03722239995841,19.03722239995841,19.03722239995841,19.03722239995841,20.020776099991053,20.020776099991053,20.708176300046034,c,1,0.6620077000698075,None,997103,001,2024-10-17_19h57.37.916,sequence learning,2024.1.5,None,2024-10-17 19h57.47.861192 +0530,
-150,z,1,3,7,3,,,,,20.72096009994857,,20.709445200045593,20.72096009994857,21.72117899998557,21.72117899998557,21.72117899998557,21.72117899998557,21.72117899998557,22.72125059994869,22.72125059994869,23.326818299945444,z,1,0.5873559999745339,None,997103,001,2024-10-17_19h57.37.916,sequence learning,2024.1.5,None,2024-10-17 19h57.47.861192 +0530,
-50,x,2,0,8,0,,,,,23.337575200013816,,23.329117199988104,23.337575200013816,24.353966300026514,24.353966300026514,24.353966300026514,24.353966300026514,24.353966300026514,25.353837099974044,25.353837099974044,25.877107299980707,x,1,0.5110320000676438,None,997103,001,2024-10-17_19h57.37.916,sequence learning,2024.1.5,None,2024-10-17 19h57.47.861192 +0530,
150,v,2,1,9,1,,,,,25.88771799998358,,25.878182500018738,25.88771799998358,26.887750699999742,26.887750699999742,26.887750699999742,26.887750699999742,26.887750699999742,27.88780929998029,27.88780929998029,28.576414300012402,v,1,0.6749071000376716,None,997103,001,2024-10-17_19h57.37.916,sequence learning,2024.1.5,None,2024-10-17 19h57.47.861192 +0530,
50,c,2,2,10,2,,,,,28.587691999971867,,28.577738799969666,28.587691999971867,29.587692799977958,29.587692799977958,29.587692799977958,29.587692799977958,29.587692799977958,30.587585199973546,30.587585199973546,31.258700600010343,c,1,0.6580932000651956,None,997103,001,2024-10-17_19h57.37.916,sequence learning,2024.1.5,None,2024-10-17 19h57.47.861192 +0530,
-150,z,2,3,11,3,,,,,31.271017899969593,,31.26035590004176,31.271017899969593,32.271131800021976,32.271131800021976,32.271131800021976,32.271131800021976,32.271131800021976,33.27119759994093,33.27119759994093,33.992250700015575,z,1,0.7179583000252023,None,997103,001,2024-10-17_19h57.37.916,sequence learning,2024.1.5,None,2024-10-17 19h57.47.861192 +0530,
-50,x,3,0,12,0,,,,,34.0044743999606,,33.99329190002754,34.0044743999606,35.00523060001433,35.00523060001433,35.00523060001433,35.00523060001433,35.00523060001433,36.00462519994471,36.00462519994471,36.54309439996723,x,1,0.5325523000210524,None,997103,001,2024-10-17_19h57.37.916,sequence learning,2024.1.5,None,2024-10-17 19h57.47.861192 +0530,
150,v,3,1,13,1,,,,,36.5546654999489,,36.54466589994263,36.5546654999489,37.5544280000031,37.5544280000031,37.5544280000031,37.5544280000031,37.5544280000031,38.554718900006264,38.554718900006264,39.61098100000527,v,1,1.037085899966769,None,997103,001,2024-10-17_19h57.37.916,sequence learning,2024.1.5,None,2024-10-17 19h57.47.861192 +0530,
50,c,3,2,14,2,,,,,39.62118829996325,,39.61312740005087,39.62118829996325,40.62150659994222,40.62150659994222,40.62150659994222,40.62150659994222,40.62150659994222,41.62163309997413,41.62163309997413,42.25974180002231,c,1,0.6292764000827447,None,997103,001,2024-10-17_19h57.37.916,sequence learning,2024.1.5,None,2024-10-17 19h57.47.861192 +0530,
-150,z,3,3,15,3,,,,,42.27169470000081,,42.261166400043294,42.27169470000081,43.271476899972185,43.271476899972185,43.271476899972185,43.271476899972185,43.271476899972185,44.27155299996957,44.27155299996957,44.911084400024265,z,1,0.6271857999963686,None,997103,001,2024-10-17_19h57.37.916,sequence learning,2024.1.5,None,2024-10-17 19h57.47.861192 +0530,
-50,x,4,0,16,0,,,,,44.92146219999995,,44.913004299975,44.92146219999995,45.92169530002866,45.92169530002866,45.92169530002866,45.92169530002866,45.92169530002866,46.921875300002284,46.921875300002284,47.59411199996248,x,1,0.67066890001297,None,997103,001,2024-10-17_19h57.37.916,sequence learning,2024.1.5,None,2024-10-17 19h57.47.861192 +0530,
150,v,4,1,17,1,,,,,47.605010799947195,,47.595359200029634,47.605010799947195,48.604934399947524,48.604934399947524,48.604934399947524,48.604934399947524,48.604934399947524,49.60521539999172,49.60521539999172,50.328239999944344,v,1,0.7090517999604344,None,997103,001,2024-10-17_19h57.37.916,sequence learning,2024.1.5,None,2024-10-17 19h57.47.861192 +0530,
50,c,4,2,18,2,,,,,50.33829310000874,,50.3292180999415,50.33829310000874,51.338332399958745,51.338332399958745,51.338332399958745,51.338332399958745,51.338332399958745,52.338475800002925,52.338475800002925,52.92616170004476,c,1,0.5813456000760198,None,997103,001,2024-10-17_19h57.37.916,sequence learning,2024.1.5,None,2024-10-17 19h57.47.861192 +0530,
-150,z,4,3,19,3,,,,,52.9384053000249,,52.92751109995879,52.9384053000249,53.93852580001112,53.93852580001112,53.93852580001112,53.93852580001112,53.93852580001112,54.938411699957214,54.938411699957214,55.610147499945015,z,1,0.6626909000333399,None,997103,001,2024-10-17_19h57.37.916,sequence learning,2024.1.5,None,2024-10-17 19h57.47.861192 +0530,
-50,x,5,0,20,0,,,,,55.62169689999428,,55.61173190001864,55.62169689999428,56.6216957999859,56.6216957999859,56.6216957999859,56.6216957999859,56.6216957999859,57.62175519997254,57.62175519997254,58.07841219997499,x,1,0.45276049990206957,None,997103,001,2024-10-17_19h57.37.916,sequence learning,2024.1.5,None,2024-10-17 19h57.47.861192 +0530,
150,v,5,1,21,1,,,,,58.08843929995783,,58.080519899958745,58.08843929995783,59.08862079994287,59.08862079994287,59.08862079994287,59.08862079994287,59.08862079994287,60.0885553000262,60.0885553000262,60.80994099995587,v,1,0.7096144000533968,None,997103,001,2024-10-17_19h57.37.916,sequence learning,2024.1.5,None,2024-10-17 19h57.47.861192 +0530,
50,c,5,2,22,2,,,,,60.822324899956584,,60.811178499949165,60.822324899956584,61.82185239996761,61.82185239996761,61.82185239996761,61.82185239996761,61.82185239996761,62.821947999997064,62.821947999997064,63.19378039997537,c,1,0.35601290001068264,None,997103,001,2024-10-17_19h57.37.916,sequence learning,2024.1.5,None,2024-10-17 19h57.47.861192 +0530,
-150,z,5,3,23,3,,,,,63.20534260000568,,63.19512000004761,63.20534260000568,64.20548580004834,64.20548580004834,64.20548580004834,64.20548580004834,64.20548580004834,65.20580080000218,65.20580080000218,65.89280519995373,z,1,0.6817332999780774,None,997103,001,2024-10-17_19h57.37.916,sequence learning,2024.1.5,None,2024-10-17 19h57.47.861192 +0530,
-50,x,6,0,24,0,,,,,65.90535070002079,,65.89399210002739,65.90535070002079,66.90562460001092,66.90562460001092,66.90562460001092,66.90562460001092,66.90562460001092,67.90535360004287,67.90535360004287,68.20954810001422,x,1,0.2949193000094965,None,997103,001,2024-10-17_19h57.37.916,sequence learning,2024.1.5,None,2024-10-17 19h57.47.861192 +0530,
150,v,6,1,25,1,,,,,68.22206519998144,,68.2110661000479,68.22206519998144,69.22235139994882,69.22235139994882,69.22235139994882,69.22235139994882,69.22235139994882,70.22208930004854,70.22208930004854,70.94335880002473,v,1,0.715066000004299,None,997103,001,2024-10-17_19h57.37.916,sequence learning,2024.1.5,None,2024-10-17 19h57.47.861192 +0530,
50,c,6,2,26,2,,,,,70.95550159993581,,70.94451139995363,70.95550159993581,71.95569540001452,71.95569540001452,71.95569540001452,71.95569540001452,71.95569540001452,72.95553519995883,72.95553519995883,73.31111689994577,c,1,0.3422790999757126,None,997103,001,2024-10-17_19h57.37.916,sequence learning,2024.1.5,None,2024-10-17 19h57.47.861192 +0530,
-150,z,6,3,27,3,,,,,73.32210680004209,,73.31268199998885,73.32210680004209,74.32228079997003,74.32228079997003,74.32228079997003,74.32228079997003,74.32228079997003,75.32220359996427,75.32220359996427,75.90978610003367,z,1,0.5804809000110254,None,997103,001,2024-10-17_19h57.37.916,sequence learning,2024.1.5,None,2024-10-17 19h57.47.861192 +0530,
-50,x,7,0,28,0,,,,,75.92267889995128,,75.9107345000375,75.92267889995128,76.92238020000514,76.92238020000514,76.92238020000514,76.92238020000514,76.92238020000514,77.92247210000642,77.92247210000642,78.3617280999897,x,1,0.42681269999593496,None,997103,001,2024-10-17_19h57.37.916,sequence learning,2024.1.5,None,2024-10-17 19h57.47.861192 +0530,
150,v,7,1,29,1,,,,,78.37276159995236,,78.36282519996166,78.37276159995236,79.37237530003767,79.37237530003767,79.37237530003767,79.37237530003767,79.37237530003767,80.37256319995504,80.37256319995504,81.12828259996604,v,1,0.7478282999945804,None,997103,001,2024-10-17_19h57.37.916,sequence learning,2024.1.5,None,2024-10-17 19h57.47.861192 +0530,
50,c,7,2,30,2,,,,,81.13915589998942,,81.13008100003935,81.13915589998942,82.13920039997902,82.13920039997902,82.13920039997902,82.13920039997902,82.13920039997902,83.13964149996173,83.13964149996173,83.59534630004782,c,1,0.4410654000239447,None,997103,001,2024-10-17_19h57.37.916,sequence learning,2024.1.5,None,2024-10-17 19h57.47.861192 +0530,
-150,z,7,3,31,3,,,,,83.60592430003453,,83.59733549994417,83.60592430003453,84.6062628000509,84.6062628000509,84.6062628000509,84.6062628000509,84.6062628000509,85.6063065000344,85.6063065000344,86.25983809994068,z,1,0.6399909000610933,None,997103,001,2024-10-17_19h57.37.916,sequence learning,2024.1.5,None,2024-10-17 19h57.47.861192 +0530,
-50,x,8,0,32,0,,,,,86.27237120002974,,86.26100679999217,86.27237120002974,87.27294069994241,87.27294069994241,87.27294069994241,87.27294069994241,87.27294069994241,88.27292400004808,88.27292400004808,88.71148709999397,x,1,0.4221610000822693,None,997103,001,2024-10-17_19h57.37.916,sequence learning,2024.1.5,None,2024-10-17 19h57.47.861192 +0530,
150,v,8,1,33,1,,,,,88.7231666999869,,88.71271140000317,88.7231666999869,89.72306670004036,89.72306670004036,89.72306670004036,89.72306670004036,89.72306670004036,90.7228653000202,90.7228653000202,91.1436181999743,v,1,0.4085037000477314,None,997103,001,2024-10-17_19h57.37.916,sequence learning,2024.1.5,None,2024-10-17 19h57.47.861192 +0530,
50,c,8,2,34,2,,,,,91.15599709993694,,91.14485669997521,91.15599709993694,92.15600720001385,92.15600720001385,92.15600720001385,92.15600720001385,92.15600720001385,93.15639879996888,93.15639879996888,93.56057620001957,c,1,0.393185899942182,None,997103,001,2024-10-17_19h57.37.916,sequence learning,2024.1.5,None,2024-10-17 19h57.47.861192 +0530,
-150,z,8,3,35,3,,,,,93.5730435999576,,93.56150970002636,93.5730435999576,94.57306139997672,94.57306139997672,94.57306139997672,94.57306139997672,94.57306139997672,95.57292279996909,95.57292279996909,96.91052759997547,z,1,1.3333972000982612,None,997103,001,2024-10-17_19h57.37.916,sequence learning,2024.1.5,None,2024-10-17 19h57.47.861192 +0530,
-50,x,9,0,36,0,,,,,96.92286639998201,,96.911675499985,96.92286639998201,97.9228816999821,97.9228816999821,97.9228816999821,97.9228816999821,97.9228816999821,98.92272819997743,98.92272819997743,99.5459952999372,x,1,0.6086134000215679,None,997103,001,2024-10-17_19h57.37.916,sequence learning,2024.1.5,None,2024-10-17 19h57.47.861192 +0530,
150,v,9,1,37,1,,,,,99.5565903999377,,99.54797970002983,99.5565903999377,100.55597009998746,100.55597009998746,100.55597009998746,100.55597009998746,100.55597009998746,101.55616909998935,101.55616909998935,102.1778441000497,v,1,0.6075634000590071,None,997103,001,2024-10-17_19h57.37.916,sequence learning,2024.1.5,None,2024-10-17 19h57.47.861192 +0530,
50,c,9,2,38,2,,,,,102.1902292999439,,102.1788966000313,102.1902292999439,103.18981939996593,103.18981939996593,103.18981939996593,103.18981939996593,103.18981939996593,104.18956199998502,104.18956199998502,104.52828169998247,c,1,0.3358140999916941,None,997103,001,2024-10-17_19h57.37.916,sequence learning,2024.1.5,None,2024-10-17 19h57.47.861192 +0530,
-150,z,9,3,39,3,,,,,104.53977489995304,,104.52943310001865,104.53977489995304,105.54045380000025,105.54045380000025,105.54045380000025,105.54045380000025,105.54045380000025,106.53995390003547,106.53995390003547,107.07850830000825,z,1,0.5262257000431418,None,997103,001,2024-10-17_19h57.37.916,sequence learning,2024.1.5,None,2024-10-17 19h57.47.861192 +0530,
-50,x,10,0,40,0,,,,,107.09013020002749,,107.08043910004199,107.09013020002749,108.08982049999759,108.08982049999759,108.08982049999759,108.08982049999759,108.08982049999759,109.09003930003382,109.09003930003382,109.71116690000053,x,1,0.6038203000789508,None,997103,001,2024-10-17_19h57.37.916,sequence learning,2024.1.5,None,2024-10-17 19h57.47.861192 +0530,
150,v,10,1,41,1,,,,,109.72366469993722,,109.71230350004043,109.72366469993722,110.72342499997467,110.72342499997467,110.72342499997467,110.72342499997467,110.72342499997467,111.7232401999645,111.7232401999645,112.31191459996626,v,1,0.5873865999747068,None,997103,001,2024-10-17_19h57.37.916,sequence learning,2024.1.5,None,2024-10-17 19h57.47.861192 +0530,
50,c,10,2,42,2,,,,,112.32324249995872,,112.31313719996251,112.32324249995872,113.32346270000562,113.32346270000562,113.32346270000562,113.32346270000562,113.32346270000562,114.32330859999638,114.32330859999638,115.11200930003542,c,1,0.7838121000677347,None,997103,001,2024-10-17_19h57.37.916,sequence learning,2024.1.5,None,2024-10-17 19h57.47.861192 +0530,
-150,z,10,3,43,3,,,,,115.12316239997745,,115.11367109999992,115.12316239997745,116.12403089995496,116.12403089995496,116.12403089995496,116.12403089995496,116.12403089995496,117.12329280003905,117.12329280003905,117.76057789998595,z,1,0.624022200005129,None,997103,001,2024-10-17_19h57.37.916,sequence learning,2024.1.5,None,2024-10-17 19h57.47.861192 +0530,
-50,x,11,0,44,0,,,,,117.77338689996395,,117.76165260002017,117.77338689996395,118.77324470004532,118.77324470004532,118.77324470004532,118.77324470004532,118.77324470004532,119.77341270004399,119.77341270004399,120.21131919999607,x,1,0.4316182999173179,None,997103,001,2024-10-17_19h57.37.916,sequence learning,2024.1.5,None,2024-10-17 19h57.47.861192 +0530,
150,v,11,1,45,1,,,,,120.2232564999722,,120.21249629999511,120.2232564999722,121.2239817000227,121.2239817000227,121.2239817000227,121.2239817000227,121.2239817000227,122.23973389994353,122.23973389994353,122.89661659998819,v,1,0.6522604000056162,None,997103,001,2024-10-17_19h57.37.916,sequence learning,2024.1.5,None,2024-10-17 19h57.47.861192 +0530,
50,c,11,2,46,2,,,,,122.90710059995763,,122.89830989995971,122.90710059995763,123.90708939998876,123.90708939998876,123.90708939998876,123.90708939998876,123.90708939998876,124.90701520000584,124.90701520000584,125.54421239998192,c,1,0.6233178999973461,None,997103,001,2024-10-17_19h57.37.916,sequence learning,2024.1.5,None,2024-10-17 19h57.47.861192 +0530,
-150,z,11,3,47,3,,,,,125.5567277999362,,125.5455343000358,125.5567277999362,126.55732180003542,126.55732180003542,126.55732180003542,126.55732180003542,126.55732180003542,127.55695600004401,127.55695600004401,128.09457600000314,z,1,0.5328524999786168,None,997103,001,2024-10-17_19h57.37.916,sequence learning,2024.1.5,None,2024-10-17 19h57.47.861192 +0530,
-50,x,12,0,48,0,,,,,128.10692920000292,,128.09562269994058,128.10692920000292,129.10699440003373,129.10699440003373,129.10699440003373,129.10699440003373,129.10699440003373,130.10702210001182,130.10702210001182,130.42772509995848,x,1,0.31919990002643317,None,997103,001,2024-10-17_19h57.37.916,sequence learning,2024.1.5,None,2024-10-17 19h57.47.861192 +0530,
150,v,12,1,49,1,,,,,130.44039070000872,,130.42885919997934,130.44039070000872,131.44051919993944,131.44051919993944,131.44051919993944,131.44051919993944,131.44051919993944,132.45666739996523,132.45666739996523,133.01372549997177,v,1,0.5469882000470534,None,997103,001,2024-10-17_19h57.37.916,sequence learning,2024.1.5,None,2024-10-17 19h57.47.861192 +0530,
50,c,12,2,50,2,,,,,133.02362260001246,,133.01499219995458,133.02362260001246,134.02392369997688,134.02392369997688,134.02392369997688,134.02392369997688,134.02392369997688,135.02381439995952,135.02381439995952,135.36172639997676,c,1,0.33054999995511025,None,997103,001,2024-10-17_19h57.37.916,sequence learning,2024.1.5,None,2024-10-17 19h57.47.861192 +0530,
-150,z,12,3,51,3,,,,,135.37378429993987,,135.36291379993781,135.37378429993987,136.37408069998492,136.37408069998492,136.37408069998492,136.37408069998492,136.37408069998492,137.3746431999607,137.3746431999607,137.69515399995726,z,1,0.3074282000306994,None,997103,001,2024-10-17_19h57.37.916,sequence learning,2024.1.5,None,2024-10-17 19h57.47.861192 +0530,
-50,x,13,0,52,0,,,,,137.70742560003418,,137.69618239998817,137.70742560003418,138.70754550001584,138.70754550001584,138.70754550001584,138.70754550001584,138.70754550001584,139.7071950000245,139.7071950000245,139.99569639994297,x,1,0.27963349991478026,None,997103,001,2024-10-17_19h57.37.916,sequence learning,2024.1.5,None,2024-10-17 19h57.47.861192 +0530,
150,v,13,1,53,1,,,,,140.00750880001578,,139.996838400024,140.00750880001578,141.00719989999197,141.00719989999197,141.00719989999197,141.00719989999197,141.00719989999197,142.00741419999395,142.00741419999395,142.3291201000102,v,1,0.3039476000703871,None,997103,001,2024-10-17_19h57.37.916,sequence learning,2024.1.5,None,2024-10-17 19h57.47.861192 +0530,
50,c,13,2,54,2,,,,,142.3407373999944,,142.33105849998537,142.3407373999944,143.3410542999627,143.3410542999627,143.3410542999627,143.3410542999627,143.3410542999627,144.3408519999357,144.3408519999357,144.69611260003876,c,1,0.3501129999058321,None,997103,001,2024-10-17_19h57.37.916,sequence learning,2024.1.5,None,2024-10-17 19h57.47.861192 +0530,
-150,z,13,3,55,3,,,,,144.7073609000072,,144.69782070000656,144.7073609000072,145.70730170002207,145.70730170002207,145.70730170002207,145.70730170002207,145.70730170002207,146.707388299983,146.707388299983,147.0130542999832,z,1,0.2950861999997869,None,997103,001,2024-10-17_19h57.37.916,sequence learning,2024.1.5,None,2024-10-17 19h57.47.861192 +0530,
-50,x,14,0,56,0,,,,,147.0240838000318,,147.01434210001025,147.0240838000318,148.0245023999596,148.0245023999596,148.0245023999596,148.0245023999596,148.0245023999596,149.02436409995425,149.02436409995425,149.27853500004858,x,1,0.24400229996535927,None,997103,001,2024-10-17_19h57.37.916,sequence learning,2024.1.5,None,2024-10-17 19h57.47.861192 +0530,
150,v,14,1,57,1,,,,,149.29086289997213,,149.27958400000352,149.29086289997213,150.29090300004464,150.29090300004464,150.29090300004464,150.29090300004464,150.29090300004464,151.29098129994236,151.29098129994236,151.61219420004636,v,1,0.3072192999534309,None,997103,001,2024-10-17_19h57.37.916,sequence learning,2024.1.5,None,2024-10-17 19h57.47.861192 +0530,
50,c,14,2,58,2,,,,,151.6242475999752,,151.61320150003303,151.6242475999752,152.62440420000348,152.62440420000348,152.62440420000348,152.62440420000348,152.62440420000348,153.62428350001574,153.62428350001574,153.82934830000158,c,1,0.20192109991330653,None,997103,001,2024-10-17_19h57.37.916,sequence learning,2024.1.5,None,2024-10-17 19h57.47.861192 +0530,
-150,z,14,3,59,3,,,,,153.84087940002792,,153.83031220000703,153.84087940002792,154.841138400021,154.841138400021,154.841138400021,154.841138400021,154.841138400021,155.84128940000664,155.84128940000664,155.98008340003435,z,1,0.13481139997020364,None,997103,001,2024-10-17_19h57.37.916,sequence learning,2024.1.5,None,2024-10-17 19h57.47.861192 +0530,
-50,x,15,0,60,0,,,,,155.9911353000207,,155.98179440002423,155.9911353000207,156.99140289996285,156.99140289996285,156.99140289996285,156.99140289996285,156.99140289996285,157.9914205999812,157.9914205999812,158.0957735000411,x,1,0.10197680001147091,None,997103,001,2024-10-17_19h57.37.916,sequence learning,2024.1.5,None,2024-10-17 19h57.47.861192 +0530,
150,v,15,1,61,1,,,,,158.10798580001574,,158.09696809994057,158.10798580001574,159.1077537999954,159.1077537999954,159.1077537999954,159.1077537999954,159.1077537999954,160.12409559998196,160.12409559998196,160.39560309995431,v,1,0.2592366000171751,None,997103,001,2024-10-17_19h57.37.916,sequence learning,2024.1.5,None,2024-10-17 19h57.47.861192 +0530,
50,c,15,2,62,2,,,,,160.40794910001568,,160.3969123000279,160.40794910001568,161.40785289998166,161.40785289998166,161.40785289998166,161.40785289998166,161.40785289998166,162.4080694000004,162.4080694000004,162.67904570000246,c,1,0.26918629999272525,None,997103,001,2024-10-17_19h57.37.916,sequence learning,2024.1.5,None,2024-10-17 19h57.47.861192 +0530,
-150,z,15,3,63,3,,,,,162.69128769997042,,162.6803678999422,162.69128769997042,163.69149340002332,163.69149340002332,163.69149340002332,163.69149340002332,163.69149340002332,164.69116489996668,164.69116489996668,164.79567619995214,z,1,0.09538050007540733,None,997103,001,2024-10-17_19h57.37.916,sequence learning,2024.1.5,None,2024-10-17 19h57.47.861192 +0530,
-50,x,16,0,64,0,,,,,164.80788049998228,,164.7967463999521,164.80788049998228,165.80873479996808,165.80873479996808,165.80873479996808,165.80873479996808,165.80873479996808,166.82436550001148,166.82436550001148,166.94727849995252,x,1,None,None,997103,001,2024-10-17_19h57.37.916,sequence learning,2024.1.5,None,2024-10-17 19h57.47.861192 +0530,
150,v,16,1,65,1,,,,,166.95808100001886,,166.94897030002903,166.95808100001886,167.958250900032,167.958250900032,167.958250900032,167.958250900032,167.958250900032,168.95803420001175,168.95803420001175,169.23220960004255,v,1,0.2681828000349924,None,997103,001,2024-10-17_19h57.37.916,sequence learning,2024.1.5,None,2024-10-17 19h57.47.861192 +0530,
50,c,16,2,66,2,,,,,169.24211540003307,,169.23413220001385,169.24211540003307,170.24179410003126,170.24179410003126,170.24179410003126,170.24179410003126,170.24179410003126,171.2417932000244,171.2417932000244,171.54518719995394,c,1,0.27699679997749627,None,997103,001,2024-10-17_19h57.37.916,sequence learning,2024.1.5,None,2024-10-17 19h57.47.861192 +0530,
-150,z,16,3,67,3,,,,,171.55818950000685,,171.5463383999886,171.55818950000685,172.55832109996118,172.55832109996118,172.55832109996118,172.55832109996118,172.55832109996118,173.5588441999862,173.5588441999862,173.7982143999543,z,1,0.22544050007127225,None,997103,001,2024-10-17_19h57.37.916,sequence learning,2024.1.5,None,2024-10-17 19h57.47.861192 +0530,
-50,x,17,0,68,0,,,,,173.80831550003495,,173.80028570001014,173.80831550003495,174.80822749994695,174.80822749994695,174.80822749994695,174.80822749994695,174.80822749994695,175.80850349995308,175.80850349995308,176.42975130002014,x,1,0.6069706999696791,None,997103,001,2024-10-17_19h57.37.916,sequence learning,2024.1.5,None,2024-10-17 19h57.47.861192 +0530,
150,v,17,1,69,1,,,,,176.44221520004794,,176.43073180003557,176.44221520004794,177.4416814999422,177.4416814999422,177.4416814999422,177.4416814999422,177.4416814999422,178.4415271000471,178.4415271000471,178.67889780004043,v,1,0.22778899990953505,None,997103,001,2024-10-17_19h57.37.916,sequence learning,2024.1.5,None,2024-10-17 19h57.47.861192 +0530,
50,c,17,2,70,2,,,,,178.69151579996105,,178.67986319994088,178.69151579996105,179.69173710001633,179.69173710001633,179.69173710001633,179.69173710001633,179.69173710001633,180.6916266999906,180.6916266999906,180.87956579995807,c,1,0.17783499998040497,None,997103,001,2024-10-17_19h57.37.916,sequence learning,2024.1.5,None,2024-10-17 19h57.47.861192 +0530,
-150,z,17,3,71,3,,,,,180.89175359997898,,180.8805823000148,180.89175359997898,181.89185499993619,181.89185499993619,181.89185499993619,181.89185499993619,181.89185499993619,182.89170419995207,182.89170419995207,183.08013390004635,z,1,0.18480899999849498,None,997103,001,2024-10-17_19h57.37.916,sequence learning,2024.1.5,None,2024-10-17 19h57.47.861192 +0530,
-50,x,18,0,72,0,,,,,183.09172090003267,,183.08196830004454,183.09172090003267,184.0918485999573,184.0918485999573,184.0918485999573,184.0918485999573,184.0918485999573,185.09230080002453,185.09230080002453,185.69614489993546,x,1,0.5982595999957994,None,997103,001,2024-10-17_19h57.37.916,sequence learning,2024.1.5,None,2024-10-17 19h57.47.861192 +0530,
150,v,18,1,73,1,,,,,185.70848639996257,,185.69733450002968,185.70848639996257,186.7084799000295,186.7084799000295,186.7084799000295,186.7084799000295,186.7084799000295,187.70860809995793,187.70860809995793,188.06327010004316,v,1,0.34259389992803335,None,997103,001,2024-10-17_19h57.37.916,sequence learning,2024.1.5,None,2024-10-17 19h57.47.861192 +0530,
50,c,18,2,74,2,,,,,188.07517409999855,,188.0642317000311,188.07517409999855,189.0753348999424,189.0753348999424,189.0753348999424,189.0753348999424,189.0753348999424,190.07527489995118,190.07527489995118,190.562681099982,c,1,0.4703395999968052,None,997103,001,2024-10-17_19h57.37.916,sequence learning,2024.1.5,None,2024-10-17 19h57.47.861192 +0530,
-150,z,18,3,75,3,,,,,190.57517520000692,,190.56390920002013,190.57517520000692,191.5753921000287,191.5753921000287,191.5753921000287,191.5753921000287,191.5753921000287,192.57565979997162,192.57565979997162,192.83116689999588,z,1,0.2509425999596715,None,997103,001,2024-10-17_19h57.37.916,sequence learning,2024.1.5,None,2024-10-17 19h57.47.861192 +0530,
-50,x,19,0,76,0,,,,,192.8419303999981,,192.83299479994457,192.8419303999981,193.84210070001427,193.84210070001427,193.84210070001427,193.84210070001427,193.84210070001427,194.8420722000301,194.8420722000301,194.98019379994366,x,1,0.1366656000027433,None,997103,001,2024-10-17_19h57.37.916,sequence learning,2024.1.5,None,2024-10-17 19h57.47.861192 +0530,
150,v,19,1,77,1,,,,,194.99213349993806,,194.98214999993797,194.99213349993806,195.99216230004095,195.99216230004095,195.99216230004095,195.99216230004095,195.99216230004095,196.9926073999377,196.9926073999377,197.1128840999445,v,1,0.10937449999619275,None,997103,001,2024-10-17_19h57.37.916,sequence learning,2024.1.5,None,2024-10-17 19h57.47.861192 +0530,
50,c,19,2,78,2,,,,,197.1254142000107,,197.11383159994148,197.1254142000107,198.12552020000294,198.12552020000294,198.12552020000294,198.12552020000294,198.12552020000294,199.12549400003627,199.12549400003627,199.4128813999705,c,1,0.2862955000018701,None,997103,001,2024-10-17_19h57.37.916,sequence learning,2024.1.5,None,2024-10-17 19h57.47.861192 +0530,
-150,z,19,3,79,3,,,,,199.4256016999716,,199.41414060001262,199.4256016999716,200.42548620002344,200.42548620002344,200.42548620002344,200.42548620002344,200.42548620002344,201.4255042000441,201.4255042000441,201.66314199997578,z,1,0.23143140005413443,None,997103,001,2024-10-17_19h57.37.916,sequence learning,2024.1.5,None,2024-10-17 19h57.47.861192 +0530,
-50,x,20,0,80,0,,,,,201.67547150002792,,201.66431509994436,201.67547150002792,202.6754990000045,202.6754990000045,202.6754990000045,202.6754990000045,202.6754990000045,203.67551820003428,203.67551820003428,203.91344789997675,x,1,0.2342731999233365,None,997103,001,2024-10-17_19h57.37.916,sequence learning,2024.1.5,None,2024-10-17 19h57.47.861192 +0530,
150,v,20,1,81,1,,,,,203.92563199996948,,203.91542790003587,203.92563199996948,204.9255540999584,204.9255540999584,204.9255540999584,204.9255540999584,204.9255540999584,205.9259616000345,205.9259616000345,206.21280920004938,v,1,0.2786626999732107,None,997103,001,2024-10-17_19h57.37.916,sequence learning,2024.1.5,None,2024-10-17 19h57.47.861192 +0530,
50,c,20,2,82,2,,,,,206.22583320003469,,206.21372719993815,206.22583320003469,207.22571160004009,207.22571160004009,207.22571160004009,207.22571160004009,207.22571160004009,208.22591869998723,208.22591869998723,208.446460200008,c,1,0.21076729998458177,None,997103,001,2024-10-17_19h57.37.916,sequence learning,2024.1.5,None,2024-10-17 19h57.47.861192 +0530,
-150,z,20,3,83,3,,,,,208.45899119996466,,208.44775749999098,208.45899119996466,209.45929389994126,209.45929389994126,209.45929389994126,209.45929389994126,209.45929389994126,210.45909220003523,210.45909220003523,210.73077759996522,z,1,0.2594783999957144,None,997103,001,2024-10-17_19h57.37.916,sequence learning,2024.1.5,None,2024-10-17 19h57.47.861192 +0530,
-50,x,21,0,84,0,,,,,210.7425980999833,,210.73194630001672,210.7425980999833,211.74296539998613,211.74296539998613,211.74296539998613,211.74296539998613,211.74296539998613,212.74259489995893,212.74259489995893,213.02985719998833,x,1,0.27082530001644045,None,997103,001,2024-10-17_19h57.37.916,sequence learning,2024.1.5,None,2024-10-17 19h57.47.861192 +0530,
150,v,21,1,85,1,,,,,213.0424985999707,,213.031187399989,213.0424985999707,214.0427227000473,214.0427227000473,214.0427227000473,214.0427227000473,214.0427227000473,215.04260699998122,215.04260699998122,215.34656660002656,v,1,0.29620310000609607,None,997103,001,2024-10-17_19h57.37.916,sequence learning,2024.1.5,None,2024-10-17 19h57.47.861192 +0530,
50,c,21,2,86,2,,,,,215.3593736999901,,215.34754019998945,215.3593736999901,216.35915589996148,216.35915589996148,216.35915589996148,216.35915589996148,216.35915589996148,217.3594829000067,217.3594829000067,217.513802499976,c,1,0.14855949999764562,None,997103,001,2024-10-17_19h57.37.916,sequence learning,2024.1.5,None,2024-10-17 19h57.47.861192 +0530,
-150,z,21,3,87,3,,,,,217.52608550002333,,217.51513620000333,217.52608550002333,218.5258584000403,218.5258584000403,218.5258584000403,218.5258584000403,218.5258584000403,219.52601509995293,219.52601509995293,219.68263609998394,z,1,0.1472275999840349,None,997103,001,2024-10-17_19h57.37.916,sequence learning,2024.1.5,None,2024-10-17 19h57.47.861192 +0530,
-50,x,22,0,88,0,,,,,219.69284409994725,,219.68475859996397,219.69284409994725,220.69297900004312,220.69297900004312,220.69297900004312,220.69297900004312,220.69297900004312,221.6926441999385,221.6926441999385,222.0636093999492,x,1,0.3642314999597147,None,997103,001,2024-10-17_19h57.37.916,sequence learning,2024.1.5,None,2024-10-17 19h57.47.861192 +0530,
150,v,22,1,89,1,,,,,222.0759454999352,,222.0648764000507,222.0759454999352,223.07616499997675,223.07616499997675,223.07616499997675,223.07616499997675,223.07616499997675,224.07604399998672,224.07604399998672,224.1973268999718,v,1,0.1171366999624297,None,997103,001,2024-10-17_19h57.37.916,sequence learning,2024.1.5,None,2024-10-17 19h57.47.861192 +0530,
50,c,22,2,90,2,,,,,224.20943539997097,,224.19833329995163,224.20943539997097,225.20968730002642,225.20968730002642,225.20968730002642,225.20968730002642,225.20968730002642,226.20952629996464,226.20952629996464,226.44718150002882,c,1,0.22760940005537122,None,997103,001,2024-10-17_19h57.37.916,sequence learning,2024.1.5,None,2024-10-17 19h57.47.861192 +0530,
-150,z,22,3,91,3,,,,,226.45956009998918,,226.44812970003113,226.45956009998918,227.45953450002708,227.45953450002708,227.45953450002708,227.45953450002708,227.45953450002708,228.45992970000952,228.45992970000952,228.58037840004545,z,1,0.11146689997985959,None,997103,001,2024-10-17_19h57.37.916,sequence learning,2024.1.5,None,2024-10-17 19h57.47.861192 +0530,
-50,x,23,0,92,0,,,,,228.59285769995768,,228.58163250004873,228.59285769995768,229.59302719996776,229.59302719996776,229.59302719996776,229.59302719996776,229.59302719996776,230.5930675000418,230.5930675000418,230.6984919999959,x,1,0.10268850007560104,None,997103,001,2024-10-17_19h57.37.916,sequence learning,2024.1.5,None,2024-10-17 19h57.47.861192 +0530,
150,v,23,1,93,1,,,,,230.7097439999925,,230.69972669996787,230.7097439999925,231.70971289998852,231.70971289998852,231.70971289998852,231.70971289998852,231.70971289998852,232.70961380004883,232.70961380004883,232.79759329999797,v,1,0.08053639996796846,None,997103,001,2024-10-17_19h57.37.916,sequence learning,2024.1.5,None,2024-10-17 19h57.47.861192 +0530,
50,c,23,2,94,2,,,,,232.809621399967,,232.79879749997053,232.809621399967,233.80982560000848,233.80982560000848,233.80982560000848,233.80982560000848,233.80982560000848,234.81002430000808,234.81002430000808,235.0471892999485,c,1,0.22211089998017997,None,997103,001,2024-10-17_19h57.37.916,sequence learning,2024.1.5,None,2024-10-17 19h57.47.861192 +0530,
-150,z,23,3,95,3,,,,,235.05961410002783,,235.04816210002173,235.05961410002783,236.0601769000059,236.0601769000059,236.0601769000059,236.0601769000059,236.0601769000059,237.0597460999852,237.0597460999852,237.1303978000069,z,1,0.06610789999831468,None,997103,001,2024-10-17_19h57.37.916,sequence learning,2024.1.5,None,2024-10-17 19h57.47.861192 +0530,
-50,x,24,0,96,0,,,,,237.1431634000037,,237.1316700000316,237.1431634000037,238.14300409995485,238.14300409995485,238.14300409995485,238.14300409995485,238.14300409995485,239.14326949999668,239.14326949999668,239.43079699994996,x,1,0.28420939994975924,None,997103,001,2024-10-17_19h57.37.916,sequence learning,2024.1.5,None,2024-10-17 19h57.47.861192 +0530,
150,v,24,1,97,1,,,,,239.44304080004804,,239.4318568999879,239.44304080004804,240.44303109997418,240.44303109997418,240.44303109997418,240.44303109997418,240.44303109997418,241.4432757999748,241.4432757999748,241.78146069997456,v,1,0.3320061999838799,None,997103,001,2024-10-17_19h57.37.916,sequence learning,2024.1.5,None,2024-10-17 19h57.47.861192 +0530,
50,c,24,2,98,2,,,,,241.79316550004296,,241.78251809999347,241.79316550004296,242.79341149993706,242.79341149993706,242.79341149993706,242.79341149993706,242.79341149993706,243.7933394999709,243.7933394999709,244.0308007999556,c,1,0.2338535999879241,None,997103,001,2024-10-17_19h57.37.916,sequence learning,2024.1.5,None,2024-10-17 19h57.47.861192 +0530,
-150,z,24,3,99,3,,,,,244.04347589996178,,244.0317703000037,244.04347589996178,245.04337660002057,245.04337660002057,245.04337660002057,245.04337660002057,245.04337660002057,246.04326619999483,246.04326619999483,246.164518399979,z,1,0.11725140002090484,None,997103,001,2024-10-17_19h57.37.916,sequence learning,2024.1.5,None,2024-10-17 19h57.47.861192 +0530,
-50,x,25,0,100,0,,,,,246.1766854999587,,246.16576480004005,246.1766854999587,247.17688579997048,247.17688579997048,247.17688579997048,247.17688579997048,247.17688579997048,248.1766348000383,248.1766348000383,248.3162892999826,x,1,0.13418409996666014,None,997103,001,2024-10-17_19h57.37.916,sequence learning,2024.1.5,None,2024-10-17 19h57.47.861192 +0530,
150,v,25,1,101,1,,,,,248.32677709998097,,248.31820159999188,248.32677709998097,249.32692669995595,249.32692669995595,249.32692669995595,249.32692669995595,249.32692669995595,250.32713310001418,250.32713310001418,250.41625400003977,v,1,0.07701250002719462,None,997103,001,2024-10-17_19h57.37.916,sequence learning,2024.1.5,None,2024-10-17 19h57.47.861192 +0530,
50,c,25,2,102,2,,,,,250.42723619996104,,250.41803119995166,250.42723619996104,251.42665000003763,251.42665000003763,251.42665000003763,251.42665000003763,251.42665000003763,252.4268314000219,252.4268314000219,252.4666056999704,c,1,0.029833099921233952,None,997103,001,2024-10-17_19h57.37.916,sequence learning,2024.1.5,None,2024-10-17 19h57.47.861192 +0530,
-150,z,25,3,103,3,,,,,252.476849699975,,252.4689347000094,252.476849699975,253.47705390001647,253.47705390001647,253.47705390001647,253.47705390001647,253.47705390001647,254.4773470000364,254.4773470000364,254.58130039996468,z,1,0.08764579996932298,None,997103,001,2024-10-17_19h57.37.916,sequence learning,2024.1.5,None,2024-10-17 19h57.47.861192 +0530,
-50,x,26,0,104,0,,,,,254.5935252000345,,254.5826151999645,254.5935252000345,255.59369709994644,255.59369709994644,255.59369709994644,255.59369709994644,255.59369709994644,256.5936867999844,256.5936867999844,257.06481320003513,x,1,0.4626496999990195,None,997103,001,2024-10-17_19h57.37.916,sequence learning,2024.1.5,None,2024-10-17 19h57.47.861192 +0530,
150,v,26,1,105,1,,,,,257.07681310002226,,257.06595570000354,257.07681310002226,258.0770449000411,258.0770449000411,258.0770449000411,258.0770449000411,258.0770449000411,259.0771880999673,259.0771880999673,259.34823100001086,v,1,0.2540502999909222,None,997103,001,2024-10-17_19h57.37.916,sequence learning,2024.1.5,None,2024-10-17 19h57.47.861192 +0530,
50,c,26,2,106,2,,,,,259.36029410001356,,259.3495357000502,259.36029410001356,260.36055700003635,260.36055700003635,260.36055700003635,260.36055700003635,260.36055700003635,261.3606090999674,261.3606090999674,261.6331506000133,c,1,0.2565231000771746,None,997103,001,2024-10-17_19h57.37.916,sequence learning,2024.1.5,None,2024-10-17 19h57.47.861192 +0530,
-150,z,26,3,107,3,,,,,261.6438659999985,,261.63443490001373,261.6438659999985,262.6439084999729,262.6439084999729,262.6439084999729,262.6439084999729,262.6439084999729,263.6437702999683,263.6437702999683,263.94814490003046,z,1,0.29115900001488626,None,997103,001,2024-10-17_19h57.37.916,sequence learning,2024.1.5,None,2024-10-17 19h57.47.861192 +0530,
-50,x,27,0,108,0,,,,,263.96065739996266,,263.94908719998784,263.96065739996266,264.96087529999204,264.96087529999204,264.96087529999204,264.96087529999204,264.96087529999204,265.96060959994793,265.96060959994793,266.7161097000353,x,1,0.745874400017783,None,997103,001,2024-10-17_19h57.37.916,sequence learning,2024.1.5,None,2024-10-17 19h57.47.861192 +0530,
150,v,27,1,109,1,,,,,266.727174700005,,266.717383399955,266.727174700005,267.7275192999514,267.7275192999514,267.7275192999514,267.7275192999514,267.7275192999514,268.72720530000515,268.72720530000515,268.94805330003146,v,1,0.21540250000543892,None,997103,001,2024-10-17_19h57.37.916,sequence learning,2024.1.5,None,2024-10-17 19h57.47.861192 +0530,
50,c,27,2,110,2,,,,,268.96104860003106,,268.9500107000349,268.96104860003106,269.96076219994575,269.96076219994575,269.96076219994575,269.96076219994575,269.96076219994575,270.9607382999966,270.9607382999966,271.18319719994906,c,1,0.2169129999820143,None,997103,001,2024-10-17_19h57.37.916,sequence learning,2024.1.5,None,2024-10-17 19h57.47.861192 +0530,
-150,z,27,3,111,3,,,,,271.1939728000434,,271.1851374999387,271.1939728000434,272.1941689000232,272.1941689000232,272.1941689000232,272.1941689000232,272.1941689000232,273.1941901999526,273.1941901999526,273.4506806000136,z,1,0.24534829996991903,None,997103,001,2024-10-17_19h57.37.916,sequence learning,2024.1.5,None,2024-10-17 19h57.47.861192 +0530,
-50,x,28,0,112,0,,,,,273.4607327999547,,273.45262060000096,273.4607327999547,274.461097399937,274.461097399937,274.461097399937,274.461097399937,274.461097399937,275.46073189994786,275.46073189994786,275.48148640000727,x,1,0.006956299999728799,None,997103,001,2024-10-17_19h57.37.916,sequence learning,2024.1.5,None,2024-10-17 19h57.47.861192 +0530,
150,v,28,1,113,1,,,,,275.4940334999701,,275.48276119993534,275.4940334999701,276.4942540000193,276.4942540000193,276.4942540000193,276.4942540000193,276.4942540000193,277.4946188000031,277.4946188000031,277.5818660999648,v,1,0.08263239997904748,None,997103,001,2024-10-17_19h57.37.916,sequence learning,2024.1.5,None,2024-10-17 19h57.47.861192 +0530,
50,c,28,2,114,2,,,,,277.5941694000503,,277.58316429995466,277.5941694000503,278.594278799952,278.594278799952,278.594278799952,278.594278799952,278.594278799952,279.59417810000014,279.59417810000014,279.7826842999784,c,1,0.18209749995730817,None,997103,001,2024-10-17_19h57.37.916,sequence learning,2024.1.5,None,2024-10-17 19h57.47.861192 +0530,
-150,z,28,3,115,3,,,,,279.7943424000405,,279.78361000004224,279.7943424000405,280.794246800011,280.794246800011,280.794246800011,280.794246800011,280.794246800011,281.79422959999647,281.79422959999647,281.9816869000206,z,1,0.17513039999175817,None,997103,001,2024-10-17_19h57.37.916,sequence learning,2024.1.5,None,2024-10-17 19h57.47.861192 +0530,
-50,x,29,0,116,0,,,,,281.9943203999428,,281.9826346000191,281.9943203999428,282.99442659993656,282.99442659993656,282.99442659993656,282.99442659993656,282.99442659993656,283.99439070001245,283.99439070001245,284.0652295999462,x,1,0.05543250008486211,None,997103,001,2024-10-17_19h57.37.916,sequence learning,2024.1.5,None,2024-10-17 19h57.47.861192 +0530,
150,v,29,1,117,1,,,,,284.07774790003896,,284.0663863000227,284.07774790003896,285.07781359995715,285.07781359995715,285.07781359995715,285.07781359995715,285.07781359995715,286.07787879998796,286.07787879998796,286.34886050003115,v,1,0.26602370000910014,None,997103,001,2024-10-17_19h57.37.916,sequence learning,2024.1.5,None,2024-10-17 19h57.47.861192 +0530,
50,c,29,2,118,2,,,,,286.3611775999889,,286.34993060003035,286.3611775999889,287.36142740002833,287.36142740002833,287.36142740002833,287.36142740002833,287.36142740002833,288.36102579999715,288.36102579999715,288.6988878999837,c,1,0.3337118000490591,None,997103,001,2024-10-17_19h57.37.916,sequence learning,2024.1.5,None,2024-10-17 19h57.47.861192 +0530,
-150,z,29,3,119,3,,,,,288.71167350001633,,288.6998217999935,288.71167350001633,289.7113783999812,289.7113783999812,289.7113783999812,289.7113783999812,289.7113783999812,290.7113228000235,290.7113228000235,290.80066439998336,z,1,0.07550849998369813,None,997103,001,2024-10-17_19h57.37.916,sequence learning,2024.1.5,None,2024-10-17 19h57.47.861192 +0530,
-50,x,30,0,120,0,,,,,290.81118059996516,,290.80264450004324,290.81118059996516,291.8115083000157,291.8115083000157,291.8115083000157,291.8115083000157,291.8115083000157,292.8112101999577,292.8112101999577,293.14844020002056,x,1,0.32332450000103563,None,997103,001,2024-10-17_19h57.37.916,sequence learning,2024.1.5,None,2024-10-17 19h57.47.861192 +0530,
150,v,30,1,121,1,,,,,293.16117189999204,,293.1493316999404,293.16117189999204,294.1615056999726,294.1615056999726,294.1615056999726,294.1615056999726,294.1615056999726,295.16154370002914,295.16154370002914,295.4327201000415,v,1,0.2641241999808699,None,997103,001,2024-10-17_19h57.37.916,sequence learning,2024.1.5,None,2024-10-17 19h57.47.861192 +0530,
50,c,30,2,122,2,,,,,295.4446684999857,,295.43384870002046,295.4446684999857,296.44478120002896,296.44478120002896,296.44478120002896,296.44478120002896,296.44478120002896,297.4448279000353,297.4448279000353,297.7171893999912,c,1,0.24503859994001687,None,997103,001,2024-10-17_19h57.37.916,sequence learning,2024.1.5,None,2024-10-17 19h57.47.861192 +0530,
-150,z,30,3,123,3,,,,,297.72880319994874,,297.7185170999728,297.72880319994874,298.7282268999843,298.7282268999843,298.7282268999843,298.7282268999843,298.7282268999843,299.7280728999758,299.7280728999758,300.1827264999738,z,1,0.4510662000393495,None,997103,001,2024-10-17_19h57.37.916,sequence learning,2024.1.5,None,2024-10-17 19h57.47.861192 +0530,
-50,x,31,0,124,0,,,,,300.194739199942,,300.18398380000144,300.194739199942,301.19493869994767,301.19493869994767,301.19493869994767,301.19493869994767,301.19493869994767,302.19489659997635,302.19489659997635,302.5333704999648,x,1,None,None,997103,001,2024-10-17_19h57.37.916,sequence learning,2024.1.5,None,2024-10-17 19h57.47.861192 +0530,
150,v,31,1,125,1,,,,,302.54496159998234,,302.53453309996985,302.54496159998234,303.54483479994815,303.54483479994815,303.54483479994815,303.54483479994815,303.54483479994815,304.54481340001803,304.54481340001803,304.8991036999505,v,1,0.34483149996958673,None,997103,001,2024-10-17_19h57.37.916,sequence learning,2024.1.5,None,2024-10-17 19h57.47.861192 +0530,
50,c,31,2,126,2,,,,,304.9117012999486,,304.9001012999797,304.9117012999486,305.91171749995556,305.91171749995556,305.91171749995556,305.91171749995556,305.91171749995556,306.91170299996156,306.91170299996156,307.18594829994254,c,1,0.26410800009034574,None,997103,001,2024-10-17_19h57.37.916,sequence learning,2024.1.5,None,2024-10-17 19h57.47.861192 +0530,
-150,z,31,3,127,3,,,,,307.1951917000115,,307.1868807999417,307.1951917000115,308.1951197000453,308.1951197000453,308.1951197000453,308.1951197000453,308.1951197000453,309.1952143999515,309.1952143999515,309.46808989997953,z,1,0.2645945999538526,None,997103,001,2024-10-17_19h57.37.916,sequence learning,2024.1.5,None,2024-10-17 19h57.47.861192 +0530,
-50,x,32,0,128,0,,,,,309.4783257000381,,309.46908179996535,309.4783257000381,310.47828259994276,310.47828259994276,310.47828259994276,310.47828259994276,310.47828259994276,311.4783623999683,311.4783623999683,311.70044729998335,x,1,0.2183523999992758,None,997103,001,2024-10-17_19h57.37.916,sequence learning,2024.1.5,None,2024-10-17 19h57.47.861192 +0530,
150,v,32,1,129,1,,,,,311.71169260004535,,311.7016748000169,311.71169260004535,312.71168279997073,312.71168279997073,312.71168279997073,312.71168279997073,312.71168279997073,313.7118047999684,313.7118047999684,314.08290919999126,v,1,0.35657740000169724,None,997103,001,2024-10-17_19h57.37.916,sequence learning,2024.1.5,None,2024-10-17 19h57.47.861192 +0530,
50,c,32,2,130,2,,,,,314.0954706999473,,314.0838449000148,314.0954706999473,315.0953843999887,315.0953843999887,315.0953843999887,315.0953843999887,315.0953843999887,316.09529450000264,316.09529450000264,316.2664761999622,c,1,0.1649290999630466,None,997103,001,2024-10-17_19h57.37.916,sequence learning,2024.1.5,None,2024-10-17 19h57.47.861192 +0530,
-150,z,32,3,131,3,,,,,316.27863539999817,,316.2675373000093,316.27863539999817,317.27889680000953,317.27889680000953,317.27889680000953,317.27889680000953,317.27889680000953,318.27854900003877,318.27854900003877,318.4493510000175,z,1,0.1591448999242857,None,997103,001,2024-10-17_19h57.37.916,sequence learning,2024.1.5,None,2024-10-17 19h57.47.861192 +0530,
-50,x,33,0,132,0,,,,,318.4619372000452,,318.4502794999862,318.4619372000452,319.4622320999624,319.4622320999624,319.4622320999624,319.4622320999624,319.4622320999624,320.4784294000128,320.4784294000128,320.69992519996595,x,1,0.21645629999693483,None,997103,001,2024-10-17_19h57.37.916,sequence learning,2024.1.5,None,2024-10-17 19h57.47.861192 +0530,
150,v,33,1,133,1,,,,,320.7120283000404,,320.70130449999124,320.7120283000404,321.7123102999758,321.7123102999758,321.7123102999758,321.7123102999758,321.7123102999758,322.71216450002976,322.71216450002976,322.99964229995385,v,1,0.2754767999285832,None,997103,001,2024-10-17_19h57.37.916,sequence learning,2024.1.5,None,2024-10-17 19h57.47.861192 +0530,
50,c,33,2,134,2,,,,,323.0123670999892,,323.00058590003755,323.0123670999892,324.01241119997576,324.01241119997576,324.01241119997576,324.01241119997576,324.01241119997576,325.0122641000198,325.0122641000198,325.1165008000098,c,1,0.0911389000248164,None,997103,001,2024-10-17_19h57.37.916,sequence learning,2024.1.5,None,2024-10-17 19h57.47.861192 +0530,
-150,z,33,3,135,3,,,,,325.12913430004846,,325.11747189995367,325.12913430004846,326.1291538999649,326.1291538999649,326.1291538999649,326.1291538999649,326.1291538999649,327.12902510003187,327.12902510003187,327.31693339999765,z,1,0.1827338000293821,None,997103,001,2024-10-17_19h57.37.916,sequence learning,2024.1.5,None,2024-10-17 19h57.47.861192 +0530,
-50,x,34,0,136,0,,,,,327.3291076000314,,327.3178561000386,327.3291076000314,328.3293645000085,328.3293645000085,328.3293645000085,328.3293645000085,328.3293645000085,329.32923449994996,329.32923449994996,329.6671304999618,x,1,0.3368481000652537,None,997103,001,2024-10-17_19h57.37.916,sequence learning,2024.1.5,None,2024-10-17 19h57.47.861192 +0530,
150,v,34,1,137,1,,,,,329.67936790001113,,329.6680499999784,329.67936790001113,330.6792655000463,330.6792655000463,330.6792655000463,330.6792655000463,330.6792655000463,331.6792448000051,331.6792448000051,331.71679029997904,v,1,0.026571800000965595,None,997103,001,2024-10-17_19h57.37.916,sequence learning,2024.1.5,None,2024-10-17 19h57.47.861192 +0530,
50,c,34,2,138,2,,,,,331.72922910004854,,331.7177395999897,331.72922910004854,332.72967979998793,332.72967979998793,332.72967979998793,332.72967979998793,332.72967979998793,333.7292518999893,333.7292518999893,334.1664561999496,c,1,0.42813280003611,None,997103,001,2024-10-17_19h57.37.916,sequence learning,2024.1.5,None,2024-10-17 19h57.47.861192 +0530,
-150,z,34,3,139,3,,,,,334.17915260000154,,334.1673562999349,334.17915260000154,335.1792713999748,335.1792713999748,335.1792713999748,335.1792713999748,335.1792713999748,336.17954199993983,336.17954199993983,336.81671219994314,z,1,0.6236649000784382,None,997103,001,2024-10-17_19h57.37.916,sequence learning,2024.1.5,None,2024-10-17 19h57.47.861192 +0530,
-50,x,35,0,140,0,,,,,336.82978359994013,,336.81766579998657,336.82978359994013,337.82945550000295,337.82945550000295,337.82945550000295,337.82945550000295,337.82945550000295,338.8295200000284,338.8295200000284,339.283511799993,x,1,0.4379759000148624,None,997103,001,2024-10-17_19h57.37.916,sequence learning,2024.1.5,None,2024-10-17 19h57.47.861192 +0530,
150,v,35,1,141,1,,,,,339.29606870003045,,339.28442729997914,339.29606870003045,340.29608470003586,340.29608470003586,340.29608470003586,340.29608470003586,340.29608470003586,341.29618589999154,341.29618589999154,341.5340922999894,v,1,0.23193150002043694,None,997103,001,2024-10-17_19h57.37.916,sequence learning,2024.1.5,None,2024-10-17 19h57.47.861192 +0530,
50,c,35,2,142,2,,,,,341.54650669998955,,341.5352142000338,341.54650669998955,342.5460999000352,342.5460999000352,342.5460999000352,342.5460999000352,342.5460999000352,343.54611989995465,343.54611989995465,343.61717880005017,c,1,0.06534229998942465,None,997103,001,2024-10-17_19h57.37.916,sequence learning,2024.1.5,None,2024-10-17 19h57.47.861192 +0530,
-150,z,35,3,143,3,,,,,343.6296761999838,,343.6181136999512,343.6296761999838,344.6295155000407,344.6295155000407,344.6295155000407,344.6295155000407,344.6295155000407,345.6295480999397,345.6295480999397,345.68385779997334,z,1,0.047169300029054284,None,997103,001,2024-10-17_19h57.37.916,sequence learning,2024.1.5,None,2024-10-17 19h57.47.861192 +0530,
-50,x,36,0,144,0,,,,,345.6962952000322,,345.6847790000029,345.6962952000322,346.69602829997893,346.69602829997893,346.69602829997893,346.69602829997893,346.69602829997893,347.696372800041,347.696372800041,347.81668089993764,x,1,0.10359040007460862,None,997103,001,2024-10-17_19h57.37.916,sequence learning,2024.1.5,None,2024-10-17 19h57.47.861192 +0530,
150,v,36,1,145,1,,,,,347.8294825999765,,347.8175883999793,347.8294825999765,348.84612160001416,348.84612160001416,348.84612160001416,348.84612160001416,348.84612160001416,349.86283660004847,349.86283660004847,350.402015700005,v,1,0.5228289000224322,None,997103,001,2024-10-17_19h57.37.916,sequence learning,2024.1.5,None,2024-10-17 19h57.47.861192 +0530,
50,c,36,2,146,2,,,,,350.4129531000508,,350.4034263000358,350.4129531000508,351.412946299999,351.412946299999,351.412946299999,351.412946299999,351.412946299999,352.4130752000492,352.4130752000492,352.55049389996566,c,1,0.12840440007857978,None,997103,001,2024-10-17_19h57.37.916,sequence learning,2024.1.5,None,2024-10-17 19h57.47.861192 +0530,
-150,z,36,3,147,3,,,,,352.5633587000193,,352.55152830004226,352.5633587000193,353.56298699998297,353.56298699998297,353.56298699998297,353.56298699998297,353.56298699998297,354.5630482999841,354.5630482999841,354.86870450002607,z,1,0.2934866000432521,None,997103,001,2024-10-17_19h57.37.916,sequence learning,2024.1.5,None,2024-10-17 19h57.47.861192 +0530,
-50,x,37,0,148,0,,,,,354.8797309000511,,354.8706599000143,354.8797309000511,355.8799837999977,355.8799837999977,355.8799837999977,355.8799837999977,355.8799837999977,356.87948470003903,356.87948470003903,357.0841546000447,x,1,0.19533030001912266,None,997103,001,2024-10-17_19h57.37.916,sequence learning,2024.1.5,None,2024-10-17 19h57.47.861192 +0530,
150,v,37,1,149,1,,,,,357.0961922999704,,357.08533559995703,357.0961922999704,358.0964470000472,358.0964470000472,358.0964470000472,358.0964470000472,358.0964470000472,359.0961778999772,359.0961778999772,359.3834848999977,v,1,0.277572900056839,None,997103,001,2024-10-17_19h57.37.916,sequence learning,2024.1.5,None,2024-10-17 19h57.47.861192 +0530,
50,c,37,2,150,2,,,,,359.3961402999703,,359.3844397000503,359.3961402999703,360.3962317999685,360.3962317999685,360.3962317999685,360.3962317999685,360.3962317999685,361.3965299000265,361.3965299000265,361.65205569996033,c,1,0.2442478999728337,None,997103,001,2024-10-17_19h57.37.916,sequence learning,2024.1.5,None,2024-10-17 19h57.47.861192 +0530,
-150,z,37,3,151,3,,,,,361.66302510001697,,361.65296279999893,361.66302510001697,362.66354910004884,362.66354910004884,362.66354910004884,362.66354910004884,362.66354910004884,363.66312789998483,363.66312789998483,364.00099339999724,z,1,0.32353409996721894,None,997103,001,2024-10-17_19h57.37.916,sequence learning,2024.1.5,None,2024-10-17 19h57.47.861192 +0530,
-50,x,38,0,152,0,,,,,364.0130170000484,,364.0020783999935,364.0130170000484,365.01325620000716,365.01325620000716,365.01325620000716,365.01325620000716,365.01325620000716,366.0131724999519,366.0131724999519,366.28591650002636,x,1,0.26045559998601675,None,997103,001,2024-10-17_19h57.37.916,sequence learning,2024.1.5,None,2024-10-17 19h57.47.861192 +0530,
150,v,38,1,153,1,,,,,366.2964402999496,,366.2871057000011,366.2964402999496,367.2965923999436,367.2965923999436,367.2965923999436,367.2965923999436,367.2965923999436,368.2965626999503,368.2965626999503,368.60052700003143,v,1,0.2938892999663949,None,997103,001,2024-10-17_19h57.37.916,sequence learning,2024.1.5,None,2024-10-17 19h57.47.861192 +0530,
50,c,38,2,154,2,,,,,368.6131733999355,,368.6014919000445,368.6131733999355,369.6133766999701,369.6133766999701,369.6133766999701,369.6133766999701,369.6133766999701,370.613421499962,370.613421499962,370.8345191000262,c,1,0.21905950002837926,None,997103,001,2024-10-17_19h57.37.916,sequence learning,2024.1.5,None,2024-10-17 19h57.47.861192 +0530,
-150,z,38,3,155,3,,,,,370.8467555999523,,370.8354911999777,370.8467555999523,371.84686409996357,371.84686409996357,371.84686409996357,371.84686409996357,371.84686409996357,372.8465675000334,372.8465675000334,372.93492659996264,z,1,0.08640280005056411,None,997103,001,2024-10-17_19h57.37.916,sequence learning,2024.1.5,None,2024-10-17 19h57.47.861192 +0530,
-50,x,39,0,156,0,,,,,372.9464567999821,,372.93621429998893,372.9464567999821,373.94654130004346,373.94654130004346,373.94654130004346,373.94654130004346,373.94654130004346,374.94679590000305,374.94679590000305,375.1846402999945,x,1,0.23129869997501373,None,997103,001,2024-10-17_19h57.37.916,sequence learning,2024.1.5,None,2024-10-17 19h57.47.861192 +0530,
150,v,39,1,157,1,,,,,375.1969984000316,,375.18591180001386,375.1969984000316,376.21291839994956,376.21291839994956,376.21291839994956,376.21291839994956,376.21291839994956,377.1967239000369,377.1967239000369,377.6340928999707,v,1,0.42283799999859184,None,997103,001,2024-10-17_19h57.37.916,sequence learning,2024.1.5,None,2024-10-17 19h57.47.861192 +0530,
50,c,39,2,158,2,,,,,377.646696300013,,377.63504289998673,377.646696300013,378.64683089999016,378.64683089999016,378.64683089999016,378.64683089999016,378.64683089999016,379.6469136000378,379.6469136000378,379.9182567000389,c,1,0.2616314999759197,None,997103,001,2024-10-17_19h57.37.916,sequence learning,2024.1.5,None,2024-10-17 19h57.47.861192 +0530,
-150,z,39,3,159,3,,,,,379.9301585999783,,379.9194771000184,379.9301585999783,380.93037219997495,380.93037219997495,380.93037219997495,380.93037219997495,380.93037219997495,381.93013470002916,381.93013470002916,382.1513509999495,z,1,0.20448870002292097,None,997103,001,2024-10-17_19h57.37.916,sequence learning,2024.1.5,None,2024-10-17 19h57.47.861192 +0530,
-50,x,40,0,160,0,,,,,382.16357730003074,,382.15225229994394,382.16357730003074,383.16375730000436,383.16375730000436,383.16375730000436,383.16375730000436,383.16375730000436,384.16379200003576,384.16379200003576,384.33633870002814,x,1,0.16806830000132322,None,997103,001,2024-10-17_19h57.37.916,sequence learning,2024.1.5,None,2024-10-17 19h57.47.861192 +0530,
150,v,40,1,161,1,,,,,384.3469231999479,,384.33834889996797,384.3469231999479,385.34704709996004,385.34704709996004,385.34704709996004,385.34704709996004,385.34704709996004,386.3469891999848,386.3469891999848,386.4510142999934,v,1,0.0983718999195844,None,997103,001,2024-10-17_19h57.37.916,sequence learning,2024.1.5,None,2024-10-17 19h57.47.861192 +0530,
50,c,40,2,162,2,,,,,386.4637140999548,,386.45198769995477,386.4637140999548,387.46395619993564,387.46395619993564,387.46395619993564,387.46395619993564,387.46395619993564,388.4639832000248,388.4639832000248,388.61841370002367,c,1,0.1404387999791652,None,997103,001,2024-10-17_19h57.37.916,sequence learning,2024.1.5,None,2024-10-17 19h57.47.861192 +0530,
-150,z,40,3,163,3,,,,,388.6304559999844,,388.6203373000026,388.6304559999844,389.63099980005063,389.63099980005063,389.63099980005063,389.63099980005063,389.63099980005063,390.6308126000222,390.6308126000222,390.8866396000376,z,1,0.242782499990426,None,997103,001,2024-10-17_19h57.37.916,sequence learning,2024.1.5,None,2024-10-17 19h57.47.861192 +0530,
-50,x,41,0,164,0,,,,,390.8970886999741,,390.88783240003977,390.8970886999741,391.89719729998615,391.89719729998615,391.89719729998615,391.89719729998615,391.89719729998615,392.8974071999546,392.8974071999546,392.9512598000001,x,1,0.04613209993112832,None,997103,001,2024-10-17_19h57.37.916,sequence learning,2024.1.5,None,2024-10-17 19h57.47.861192 +0530,
150,v,41,1,165,1,,,,,392.96402940002736,,392.95247859996744,392.96402940002736,393.96389719995204,393.96389719995204,393.96389719995204,393.96389719995204,393.96389719995204,394.9639494000003,394.9639494000003,395.32024559995625,v,1,0.3445911000017077,None,997103,001,2024-10-17_19h57.37.916,sequence learning,2024.1.5,None,2024-10-17 19h57.47.861192 +0530,
50,c,41,2,166,2,,,,,395.330786800012,,395.32245159999,395.330786800012,396.3309715000214,396.3309715000214,396.3309715000214,396.3309715000214,396.3309715000214,397.3310189000331,397.3310189000331,397.7520715999417,c,1,0.41968119994271547,None,997103,001,2024-10-17_19h57.37.916,sequence learning,2024.1.5,None,2024-10-17 19h57.47.861192 +0530,
-150,z,41,3,167,3,,,,,397.76410349993967,,397.7535144999856,397.76410349993967,398.7646107999608,398.7646107999608,398.7646107999608,398.7646107999608,398.7646107999608,399.76409990002867,399.76409990002867,399.95167730003595,z,1,0.17117800004780293,None,997103,001,2024-10-17_19h57.37.916,sequence learning,2024.1.5,None,2024-10-17 19h57.47.861192 +0530,
-50,x,42,0,168,0,,,,,399.96403170004487,,399.95266900002025,399.96403170004487,400.9639758999692,400.9639758999692,400.9639758999692,400.9639758999692,400.9639758999692,401.9643107999582,401.9643107999582,402.4194731999887,x,1,0.4430388000328094,None,997103,001,2024-10-17_19h57.37.916,sequence learning,2024.1.5,None,2024-10-17 19h57.47.861192 +0530,
150,v,42,1,169,1,,,,,402.4306656999979,,402.420506299939,402.4306656999979,403.431295700022,403.431295700022,403.431295700022,403.431295700022,403.431295700022,404.43108170002233,404.43108170002233,404.7519796999404,v,1,0.31777859991416335,None,997103,001,2024-10-17_19h57.37.916,sequence learning,2024.1.5,None,2024-10-17 19h57.47.861192 +0530,
50,c,42,2,170,2,,,,,404.7642512000166,,404.75294309994206,404.7642512000166,405.7647125000367,405.7647125000367,405.7647125000367,405.7647125000367,405.7647125000367,406.76444399997126,406.76444399997126,407.06908060004935,c,1,0.29229490004945546,None,997103,001,2024-10-17_19h57.37.916,sequence learning,2024.1.5,None,2024-10-17 19h57.47.861192 +0530,
-150,z,42,3,171,3,,,,,407.0811474999646,,407.0700138999382,407.0811474999646,408.0812620000215,408.0812620000215,408.0812620000215,408.0812620000215,408.0812620000215,409.0811871000333,409.0811871000333,409.3856793999439,z,1,0.28722339996602386,None,997103,001,2024-10-17_19h57.37.916,sequence learning,2024.1.5,None,2024-10-17 19h57.47.861192 +0530,
-50,x,43,0,172,0,,,,,409.397566700005,,409.3869709999999,409.397566700005,410.39813079999294,410.39813079999294,410.39813079999294,410.39813079999294,410.39813079999294,411.3981472000014,411.3981472000014,411.60189219994936,x,1,0.1906101000495255,None,997103,001,2024-10-17_19h57.37.916,sequence learning,2024.1.5,None,2024-10-17 19h57.47.861192 +0530,
150,v,43,1,173,1,,,,,411.61481870000716,,411.60287459997926,411.61481870000716,412.6144572000485,412.6144572000485,412.6144572000485,412.6144572000485,412.6144572000485,413.61428290000185,413.61428290000185,413.88539449998643,v,1,0.2557258000597358,None,997103,001,2024-10-17_19h57.37.916,sequence learning,2024.1.5,None,2024-10-17 19h57.47.861192 +0530,
50,c,43,2,174,2,,,,,413.8979826000286,,413.8864325999748,413.8979826000286,414.8978513999609,414.8978513999609,414.8978513999609,414.8978513999609,414.8978513999609,415.8976672999561,415.8976672999561,416.18492739996873,c,1,0.27699250006116927,None,997103,001,2024-10-17_19h57.37.916,sequence learning,2024.1.5,None,2024-10-17 19h57.47.861192 +0530,
-150,z,43,3,175,3,,,,,416.1977972999448,,416.18596479995176,416.1977972999448,417.19773769995663,417.19773769995663,417.19773769995663,417.19773769995663,417.19773769995663,418.19778209994547,418.19778209994547,418.6529341000132,z,1,0.44784680008888245,None,997103,001,2024-10-17_19h57.37.916,sequence learning,2024.1.5,None,2024-10-17 19h57.47.861192 +0530,
-50,x,44,0,176,0,,,,,418.6648223999655,,418.6538213000167,418.6648223999655,419.6646941000363,419.6646941000363,419.6646941000363,419.6646941000363,419.6646941000363,420.6649357000133,420.6649357000133,420.9352126000449,x,1,0.2626958000473678,None,997103,001,2024-10-17_19h57.37.916,sequence learning,2024.1.5,None,2024-10-17 19h57.47.861192 +0530,
150,v,44,1,177,1,,,,,420.9481585000176,,420.93634489993565,420.9481585000176,421.9486559999641,421.9486559999641,421.9486559999641,421.9486559999641,421.9486559999641,422.9483461000491,422.9483461000491,423.23618030000944,v,1,0.2720162000041455,None,997103,001,2024-10-17_19h57.37.916,sequence learning,2024.1.5,None,2024-10-17 19h57.47.861192 +0530,
50,c,44,2,178,2,,,,,423.24840869999025,,423.2371446000179,423.24840869999025,424.24831529997755,424.24831529997755,424.24831529997755,424.24831529997755,424.24831529997755,425.2484759000363,425.2484759000363,425.5694482999388,c,1,0.31484750006347895,None,997103,001,2024-10-17_19h57.37.916,sequence learning,2024.1.5,None,2024-10-17 19h57.47.861192 +0530,
-150,z,44,3,179,3,,,,,425.5813247000333,,425.57088310003746,425.5813247000333,426.5813523000106,426.5813523000106,426.5813523000106,426.5813523000106,426.5813523000106,427.5821540999459,427.5821540999459,427.90291539998725,z,1,0.3143526999047026,None,997103,001,2024-10-17_19h57.37.916,sequence learning,2024.1.5,None,2024-10-17 19h57.47.861192 +0530,
-50,x,45,0,180,0,,,,,427.91529389994685,,427.90383309999015,427.91529389994685,428.9148130000103,428.9148130000103,428.9148130000103,428.9148130000103,428.9148130000103,429.9152321999427,429.9152321999427,430.20255589997396,x,1,0.2743196999654174,None,997103,001,2024-10-17_19h57.37.916,sequence learning,2024.1.5,None,2024-10-17 19h57.47.861192 +0530,
150,v,45,1,181,1,,,,,430.21499989996664,,430.2034693999449,430.21499989996664,431.21516939997673,431.21516939997673,431.21516939997673,431.21516939997673,431.21516939997673,432.21508290001657,432.21508290001657,432.2546941000037,v,1,0.03250029997434467,None,997103,001,2024-10-17_19h57.37.916,sequence learning,2024.1.5,None,2024-10-17 19h57.47.861192 +0530,
50,c,45,2,182,2,,,,,432.2652542999713,,432.25669359997846,432.2652542999713,433.2654373999685,433.2654373999685,433.2654373999685,433.2654373999685,433.2654373999685,434.2655070000328,434.2655070000328,434.60249850002583,c,1,0.32102710008621216,None,997103,001,2024-10-17_19h57.37.916,sequence learning,2024.1.5,None,2024-10-17 19h57.47.861192 +0530,
-150,z,45,3,183,3,,,,,434.6152299999958,,434.6033489999827,434.6152299999958,435.6151230999967,435.6151230999967,435.6151230999967,435.6151230999967,435.6151230999967,436.6153728000354,436.6153728000354,436.61988769995514,z,1,0.0006198000628501177,None,997103,001,2024-10-17_19h57.37.916,sequence learning,2024.1.5,None,2024-10-17 19h57.47.861192 +0530,
-50,x,46,0,184,0,,,,,436.6319765000371,,436.62081470002886,436.6319765000371,437.63239219994284,437.63239219994284,437.63239219994284,437.63239219994284,437.63239219994284,438.63196529995184,438.63196529995184,438.6861265000189,x,1,0.03830430004745722,None,997103,001,2024-10-17_19h57.37.916,sequence learning,2024.1.5,None,2024-10-17 19h57.47.861192 +0530,
150,v,46,1,185,1,,,,,438.69872760004364,,438.68704400002025,438.69872760004364,439.6985527999932,439.6985527999932,439.6985527999932,439.6985527999932,439.6985527999932,440.6988607000094,440.6988607000094,441.08628539997153,v,1,0.377553700003773,None,997103,001,2024-10-17_19h57.37.916,sequence learning,2024.1.5,None,2024-10-17 19h57.47.861192 +0530,
50,c,46,2,186,2,,,,,441.0986174000427,,441.08719560003374,441.0986174000427,442.09893290000036,442.09893290000036,442.09893290000036,442.09893290000036,442.09893290000036,443.09885479998775,443.09885479998775,443.40329909999855,c,1,0.29564590007066727,None,997103,001,2024-10-17_19h57.37.916,sequence learning,2024.1.5,None,2024-10-17 19h57.47.861192 +0530,
-150,z,46,3,187,3,,,,,443.4155466000084,,443.4042224000441,443.4155466000084,444.4156536000082,444.4156536000082,444.4156536000082,444.4156536000082,444.4156536000082,445.41556919994764,445.41556919994764,445.7532132000197,z,1,0.33533340005669743,None,997103,001,2024-10-17_19h57.37.916,sequence learning,2024.1.5,None,2024-10-17 19h57.47.861192 +0530,
-50,x,47,0,188,0,,,,,445.7658151999349,,445.7541340000462,445.7658151999349,446.7655413999455,446.7655413999455,446.7655413999455,446.7655413999455,446.7655413999455,447.765583600034,447.765583600034,447.96996479993686,x,1,0.1891926999669522,None,997103,001,2024-10-17_19h57.37.916,sequence learning,2024.1.5,None,2024-10-17 19h57.47.861192 +0530,
150,v,47,1,189,1,,,,,447.982296400005,,447.97083599993493,447.982296400005,448.9824174999958,448.9824174999958,448.9824174999958,448.9824174999958,448.9824174999958,449.98254410002846,449.98254410002846,450.30311670002993,v,1,0.3186665999237448,None,997103,001,2024-10-17_19h57.37.916,sequence learning,2024.1.5,None,2024-10-17 19h57.47.861192 +0530,
50,c,47,2,190,2,,,,,450.3158386000432,,450.3040269999765,450.3158386000432,451.3158897999674,451.3158897999674,451.3158897999674,451.3158897999674,451.3158897999674,452.31580410001334,452.31580410001334,452.63645780005027,c,1,0.314570700051263,None,997103,001,2024-10-17_19h57.37.916,sequence learning,2024.1.5,None,2024-10-17 19h57.47.861192 +0530,
-150,z,47,3,191,3,,,,,452.6492568999529,,452.6375484999735,452.6492568999529,453.6490993000334,453.6490993000334,453.6490993000334,453.6490993000334,453.6490993000334,454.6492479000008,454.6492479000008,454.78697160002775,z,1,0.1340238000266254,None,997103,001,2024-10-17_19h57.37.916,sequence learning,2024.1.5,None,2024-10-17 19h57.47.861192 +0530,
-50,x,48,0,192,0,,,,,454.79915610002354,,454.7878987999866,454.79915610002354,455.799163699965,455.799163699965,455.799163699965,455.799163699965,455.799163699965,456.7991620999528,456.7991620999528,456.9035469000228,x,1,0.09624670003540814,None,997103,001,2024-10-17_19h57.37.916,sequence learning,2024.1.5,None,2024-10-17 19h57.47.861192 +0530,
150,v,48,1,193,1,,,,,456.9157800000394,,456.90443720004987,456.9157800000394,457.9156197999837,457.9156197999837,457.9156197999837,457.9156197999837,457.9156197999837,458.9157657000469,458.9157657000469,459.1201139000477,v,1,0.18757589999586344,None,997103,001,2024-10-17_19h57.37.916,sequence learning,2024.1.5,None,2024-10-17 19h57.47.861192 +0530,
50,c,48,2,194,2,,,,,459.1321574000176,,459.12114199995995,459.1321574000176,460.13256109994836,460.13256109994836,460.13256109994836,460.13256109994836,460.13256109994836,461.1655138999922,461.1655138999922,461.3071611999767,c,1,0.1348724999697879,None,997103,001,2024-10-17_19h57.37.916,sequence learning,2024.1.5,None,2024-10-17 19h57.47.861192 +0530,
-150,z,48,3,195,3,,,,,461.3320429000305,,461.3090394999599,461.3320429000305,462.33227789995726,462.33227789995726,462.33227789995726,462.33227789995726,462.3494044999825,463.31594140001107,463.31594140001107,463.45333699998446,z,1,0.13145659992005676,None,997103,001,2024-10-17_19h57.37.916,sequence learning,2024.1.5,None,2024-10-17 19h57.47.861192 +0530,
-50,x,49,0,196,0,,,,,463.4659481999697,,463.45423120004125,463.4659481999697,464.465867199935,464.465867199935,464.465867199935,464.465867199935,464.465867199935,465.4660676999483,465.4660676999483,465.5870062999893,x,1,0.11761900002602488,None,997103,001,2024-10-17_19h57.37.916,sequence learning,2024.1.5,None,2024-10-17 19h57.47.861192 +0530,
150,v,49,1,197,1,,,,,465.5993964000372,,465.5879361999687,465.5993964000372,466.5993138999911,466.5993138999911,466.5993138999911,466.5993138999911,466.5993138999911,467.59937429998536,467.59937429998536,467.7372884999495,v,1,0.1281635999912396,None,997103,001,2024-10-17_19h57.37.916,sequence learning,2024.1.5,None,2024-10-17 19h57.47.861192 +0530,
50,c,49,2,198,2,,,,,467.7495294000255,,467.73821260000113,467.7495294000255,468.749529600027,468.749529600027,468.749529600027,468.749529600027,468.749529600027,469.7497154000448,469.7497154000448,469.92023739998695,c,1,0.15755230002105236,None,997103,001,2024-10-17_19h57.37.916,sequence learning,2024.1.5,None,2024-10-17 19h57.47.861192 +0530,
-150,z,49,3,199,3,,,,,469.93308240000624,,469.9214004999958,469.93308240000624,470.93271760002244,470.93271760002244,470.93271760002244,470.93271760002244,470.93271760002244,471.9333080999786,471.9333080999786,472.22022719995584,z,1,0.27939070004504174,None,997103,001,2024-10-17_19h57.37.916,sequence learning,2024.1.5,None,2024-10-17 19h57.47.861192 +0530,
-50,x,,,,,0,0,0,0,472.23306340002455,,472.22538359998725,472.23306340002455,473.2328450999921,473.2328450999921,473.2328450999921,473.2328450999921,473.2328450999921,474.23313920001965,474.23313920001965,474.5538457999937,x,1,0.3087218999862671,None,997103,001,2024-10-17_19h57.37.916,sequence learning,2024.1.5,None,2024-10-17 19h57.47.861192 +0530,
50,c,,,,,0,1,1,2,474.5663126000436,,474.5550825999817,474.5663126000436,475.56608859996777,475.56608859996777,475.56608859996777,475.56608859996777,475.56608859996777,476.56619289994705,476.56619289994705,476.95385970000643,v,0,0.3776443999959156,None,997103,001,2024-10-17_19h57.37.916,sequence learning,2024.1.5,None,2024-10-17 19h57.47.861192 +0530,
-150,z,,,,,0,2,2,3,476.9662892000051,,476.95480109995697,476.9662892000051,477.96617609995883,477.96617609995883,477.96617609995883,477.96617609995883,477.96617609995883,478.9661466999678,478.9661466999678,479.6535491000395,z,1,0.679625799995847,None,997103,001,2024-10-17_19h57.37.916,sequence learning,2024.1.5,None,2024-10-17 19h57.47.861192 +0530,
150,v,,,,,0,3,3,1,479.6661808999488,,479.65444810001645,479.6661808999488,480.66633529996034,480.66633529996034,480.66633529996034,480.66633529996034,480.66633529996034,481.66625579993706,481.66625579993706,482.42093360004947,v,1,0.7534370999783278,None,997103,001,2024-10-17_19h57.37.916,sequence learning,2024.1.5,None,2024-10-17 19h57.47.861192 +0530,
150,v,,,,,1,0,4,1,482.4331531999633,,482.4218794000335,482.4331531999633,483.4329688999569,483.4329688999569,483.4329688999569,483.4329688999569,483.4329688999569,484.4332057000138,484.4332057000138,485.38755200000014,v,1,0.951450299937278,None,997103,001,2024-10-17_19h57.37.916,sequence learning,2024.1.5,None,2024-10-17 19h57.47.861192 +0530,
-50,x,,,,,1,1,5,0,485.39986889995635,,485.3884772999445,485.39986889995635,486.39974649995565,486.39974649995565,486.39974649995565,486.39974649995565,486.39974649995565,487.39994829997886,487.39994829997886,488.12060330004897,x,1,0.7090954999439418,None,997103,001,2024-10-17_19h57.37.916,sequence learning,2024.1.5,None,2024-10-17 19h57.47.861192 +0530,
-150,z,,,,,1,2,6,3,488.13347909995355,,488.12153610005043,488.13347909995355,489.13341310003307,489.13341310003307,489.13341310003307,489.13341310003307,489.13341310003307,490.1333235000493,490.1333235000493,490.92137630004436,z,1,0.7870403000852093,None,997103,001,2024-10-17_19h57.37.916,sequence learning,2024.1.5,None,2024-10-17 19h57.47.861192 +0530,
50,c,,,,,1,3,7,2,490.9334254999412,,490.92230770003516,490.9334254999412,491.9333857999882,491.9333857999882,491.9333857999882,491.9333857999882,491.9333857999882,492.9330512000015,492.9330512000015,493.42091270000674,c,1,0.48224619997199625,None,997103,001,2024-10-17_19h57.37.916,sequence learning,2024.1.5,None,2024-10-17 19h57.47.861192 +0530,
-150,z,,,,,2,0,8,3,493.43352069996763,,493.42191190004814,493.43352069996763,494.43346430000383,494.43346430000383,494.43346430000383,494.43346430000383,494.43346430000383,495.43357350002043,495.43357350002043,495.9211417000042,z,1,0.4732631000224501,None,997103,001,2024-10-17_19h57.37.916,sequence learning,2024.1.5,None,2024-10-17 19h57.47.861192 +0530,
50,c,,,,,2,1,9,2,495.9334128999617,,495.9220608000178,495.9334128999617,496.93343289999757,496.93343289999757,496.93343289999757,496.93343289999757,496.93343289999757,497.93322240002453,497.93322240002453,498.8217671000166,c,1,0.8837919000070542,None,997103,001,2024-10-17_19h57.37.916,sequence learning,2024.1.5,None,2024-10-17 19h57.47.861192 +0530,
-50,x,,,,,2,2,10,0,498.83379539998714,,498.82291899994016,498.83379539998714,499.83357879996765,499.83357879996765,499.83357879996765,499.83357879996765,499.83357879996765,500.8335538000101,500.8335538000101,501.6546469000168,x,1,0.8133618999272585,None,997103,001,2024-10-17_19h57.37.916,sequence learning,2024.1.5,None,2024-10-17 19h57.47.861192 +0530,
150,v,,,,,2,3,11,1,501.66689819993917,,501.65555719996337,501.66689819993917,502.6670901000034,502.6670901000034,502.6670901000034,502.6670901000034,502.6670901000034,503.6670512999408,503.6670512999408,504.32110069994815,v,1,0.6528644000645727,None,997103,001,2024-10-17_19h57.37.916,sequence learning,2024.1.5,None,2024-10-17 19h57.47.861192 +0530,
-150,z,,,,,3,0,12,3,504.3335333999712,,504.3220683999825,504.3335333999712,505.33391929999925,505.33391929999925,505.33391929999925,505.33391929999925,505.33391929999925,506.3339170999825,506.3339170999825,506.85483339999337,z,1,0.5063956000376493,None,997103,001,2024-10-17_19h57.37.916,sequence learning,2024.1.5,None,2024-10-17 19h57.47.861192 +0530,
-50,x,,,,,3,1,13,0,506.8672043000115,,506.85577859997284,506.8672043000115,507.867095900001,507.867095900001,507.867095900001,507.867095900001,507.867095900001,508.8671743000159,508.8671743000159,509.57169030001387,x,1,0.6897617999929935,None,997103,001,2024-10-17_19h57.37.916,sequence learning,2024.1.5,None,2024-10-17 19h57.47.861192 +0530,
150,v,,,,,3,2,14,1,509.58393429999705,,509.5726248000283,509.58393429999705,510.5842515999684,510.5842515999684,510.5842515999684,510.5842515999684,510.5842515999684,511.5842487999471,511.5842487999471,512.2881979999365,v,1,0.7008792000124231,None,997103,001,2024-10-17_19h57.37.916,sequence learning,2024.1.5,None,2024-10-17 19h57.47.861192 +0530,
50,c,,,,,3,3,15,2,512.3006631999742,,512.2891219999874,512.3006631999742,513.3006160999648,513.3006160999648,513.3006160999648,513.3006160999648,513.3006160999648,514.3011480999412,514.3011480999412,514.9382973000174,c,1,0.6252423000987619,None,997103,001,2024-10-17_19h57.37.916,sequence learning,2024.1.5,None,2024-10-17 19h57.47.861192 +0530,
-50,x,,,,,4,0,16,0,514.9508043000242,,514.9392944000429,514.9508043000242,515.9507103000069,515.9507103000069,515.9507103000069,515.9507103000069,515.9507103000069,516.9506847000448,516.9506847000448,517.6211415999569,x,1,0.6682583999354392,None,997103,001,2024-10-17_19h57.37.916,sequence learning,2024.1.5,None,2024-10-17 19h57.47.861192 +0530,
50,c,,,,,4,1,17,2,517.6341251999838,,517.6221130000195,517.6341251999838,518.6340747999493,518.6340747999493,518.6340747999493,518.6340747999493,518.6340747999493,519.6340867000399,519.6340867000399,520.3549415000016,c,1,0.7045880999648944,None,997103,001,2024-10-17_19h57.37.916,sequence learning,2024.1.5,None,2024-10-17 19h57.47.861192 +0530,
-150,z,,,,,4,2,18,3,520.3676796000218,,520.355871799984,520.3676796000218,521.3678890999872,521.3678890999872,521.3678890999872,521.3678890999872,521.3678890999872,522.3675332999555,522.3675332999555,522.754873399972,z,1,0.37845640000887215,None,997103,001,2024-10-17_19h57.37.916,sequence learning,2024.1.5,None,2024-10-17 19h57.47.861192 +0530,
150,v,,,,,4,3,19,1,522.7675460999599,,522.755777399987,522.7675460999599,523.7676255999831,523.7676255999831,523.7676255999831,523.7676255999831,523.7676255999831,524.7674606000073,524.7674606000073,525.5216329999967,v,1,0.7464995000045747,None,997103,001,2024-10-17_19h57.37.916,sequence learning,2024.1.5,None,2024-10-17 19h57.47.861192 +0530,
-50,x,,,,,5,0,20,0,525.5342793000164,,525.522574899951,525.5342793000164,526.5344027000247,526.5344027000247,526.5344027000247,526.5344027000247,526.5344027000247,527.5344681999413,527.5344681999413,528.5719236000441,x,1,1.035005700075999,None,997103,001,2024-10-17_19h57.37.916,sequence learning,2024.1.5,None,2024-10-17 19h57.47.861192 +0530,
-150,z,,,,,5,1,21,3,528.5843733999645,,528.572868600022,528.5843733999645,529.5843041000189,529.5843041000189,529.5843041000189,529.5843041000189,529.5843041000189,530.5843847000506,530.5843847000506,531.0387599000242,z,1,0.4482179000042379,None,997103,001,2024-10-17_19h57.37.916,sequence learning,2024.1.5,None,2024-10-17 19h57.47.861192 +0530,
50,c,,,,,5,2,22,2,531.0510907999706,,531.0397101000417,531.0510907999706,532.0509195999475,532.0509195999475,532.0509195999475,532.0509195999475,532.0509195999475,533.0513924999395,533.0513924999395,533.7391059999354,c,1,0.6811734000220895,None,997103,001,2024-10-17_19h57.37.916,sequence learning,2024.1.5,None,2024-10-17 19h57.47.861192 +0530,
150,v,,,,,5,3,23,1,533.7514010999585,,533.740048800013,533.7514010999585,534.7512477999553,534.7512477999553,534.7512477999553,534.7512477999553,534.7512477999553,535.7512071999954,535.7512071999954,536.3054545000196,v,1,0.5513817999744788,None,997103,001,2024-10-17_19h57.37.916,sequence learning,2024.1.5,None,2024-10-17 19h57.47.861192 +0530,
50,c,,,,,6,0,24,2,536.3179185000481,,536.3063798999647,536.3179185000481,537.3177731999895,537.3177731999895,537.3177731999895,537.3177731999895,537.3177731999895,538.3179760000203,538.3179760000203,538.9221742999507,c,1,0.5935645999852568,None,997103,001,2024-10-17_19h57.37.916,sequence learning,2024.1.5,None,2024-10-17 19h57.47.861192 +0530,
150,v,,,,,6,1,25,1,538.9349614999956,,538.9230840000091,538.9349614999956,539.9344953999389,539.9344953999389,539.9344953999389,539.9344953999389,539.9344953999389,540.9342480000341,540.9342480000341,541.4223164999858,v,1,0.4801045999629423,None,997103,001,2024-10-17_19h57.37.916,sequence learning,2024.1.5,None,2024-10-17 19h57.47.861192 +0530,
-150,z,,,,,6,2,26,3,541.4347449999768,,541.4232453999575,541.4347449999768,542.4347413999494,542.4347413999494,542.4347413999494,542.4347413999494,542.4347413999494,543.4347607999807,543.4347607999807,544.0059751999797,z,1,0.5569578000577167,None,997103,001,2024-10-17_19h57.37.916,sequence learning,2024.1.5,None,2024-10-17 19h57.47.861192 +0530,
-50,x,,,,,6,3,27,0,544.0183637000155,,544.0069100999972,544.0183637000155,545.0182629999472,545.0182629999472,545.0182629999472,545.0182629999472,545.0182629999472,546.0181856999407,546.0181856999407,546.5059363000328,x,1,0.48664979997556657,None,997103,001,2024-10-17_19h57.37.916,sequence learning,2024.1.5,None,2024-10-17 19h57.47.861192 +0530,
150,v,,,,,7,0,28,1,546.5182729000226,,546.5068635999924,546.5182729000226,547.5181789000053,547.5181789000053,547.5181789000053,547.5181789000053,547.5181789000053,548.5183813000331,548.5183813000331,549.072522399947,v,1,0.5448571998858824,None,997103,001,2024-10-17_19h57.37.916,sequence learning,2024.1.5,None,2024-10-17 19h57.47.861192 +0530,
50,c,,,,,7,1,29,2,549.0849249999737,,549.0734678000445,549.0849249999737,550.084742099978,550.084742099978,550.084742099978,550.084742099978,550.084742099978,551.0853023999371,551.0853023999371,551.6392507000128,c,1,0.552650700090453,None,997103,001,2024-10-17_19h57.37.916,sequence learning,2024.1.5,None,2024-10-17 19h57.47.861192 +0530,
-150,z,,,,,7,2,30,3,551.6516112999525,,551.6401940999785,551.6516112999525,552.65142010001,552.65142010001,552.65142010001,552.65142010001,552.65142010001,553.6515960999532,553.6515960999532,553.9724154999712,z,1,0.3120944000547752,None,997103,001,2024-10-17_19h57.37.916,sequence learning,2024.1.5,None,2024-10-17 19h57.47.861192 +0530,
-50,x,,,,,7,3,31,0,553.9849933999358,,553.9733397000236,553.9849933999358,554.9848399000475,554.9848399000475,554.9848399000475,554.9848399000475,554.9848399000475,555.9852162000025,555.9852162000025,556.256173199974,x,1,0.2631395999342203,None,997103,001,2024-10-17_19h57.37.916,sequence learning,2024.1.5,None,2024-10-17 19h57.47.861192 +0530,
-50,x,,,,,8,0,32,0,556.2684572000289,,556.2571051999694,556.2684572000289,557.2681946000084,557.2681946000084,557.2681946000084,557.2681946000084,557.2681946000084,558.2684178999625,558.2684178999625,559.005977599998,x,1,0.7282593999989331,None,997103,001,2024-10-17_19h57.37.916,sequence learning,2024.1.5,None,2024-10-17 19h57.47.861192 +0530,
150,v,,,,,8,1,33,1,559.0185841999482,,559.0068525000243,559.0185841999482,560.0183760999935,560.0183760999935,560.0183760999935,560.0183760999935,560.0183760999935,561.0184964999789,561.0184964999789,561.7059744000435,v,1,0.6746977999573573,None,997103,001,2024-10-17_19h57.37.916,sequence learning,2024.1.5,None,2024-10-17 19h57.47.861192 +0530,
50,c,,,,,8,2,34,2,561.7185393000254,,561.7069046000252,561.7185393000254,562.7185584999388,562.7185584999388,562.7185584999388,562.7185584999388,562.7185584999388,563.7187565000495,563.7187565000495,564.1895975000225,c,1,0.4548116000369191,None,997103,001,2024-10-17_19h57.37.916,sequence learning,2024.1.5,None,2024-10-17 19h57.47.861192 +0530,
-150,z,,,,,8,3,35,3,564.2019216000335,,564.1905446000164,564.2019216000335,565.2019759999821,565.2019759999821,565.2019759999821,565.2019759999821,565.2019759999821,566.2017900999635,566.2017900999635,566.5730699000414,z,1,0.3591674999333918,None,997103,001,2024-10-17_19h57.37.916,sequence learning,2024.1.5,None,2024-10-17 19h57.47.861192 +0530,
-150,z,,,,,9,0,36,3,566.5852795999963,,566.5741759999655,566.5852795999963,567.5854966000188,567.5854966000188,567.5854966000188,567.5854966000188,567.5854966000188,568.585214599967,568.585214599967,569.1561996999662,z,1,0.5551791000179946,None,997103,001,2024-10-17_19h57.37.916,sequence learning,2024.1.5,None,2024-10-17 19h57.47.861192 +0530,
-50,x,,,,,9,1,37,0,569.1687572000083,,569.1571224000072,569.1687572000083,570.1687099999981,570.1687099999981,570.1687099999981,570.1687099999981,570.1687099999981,571.1689555000048,571.1689555000048,571.9061483000405,x,1,0.7211016999790445,None,997103,001,2024-10-17_19h57.37.916,sequence learning,2024.1.5,None,2024-10-17 19h57.47.861192 +0530,
50,c,,,,,9,2,38,2,571.9188158999896,,571.9070254999679,571.9188158999896,572.918566999957,572.918566999957,572.918566999957,572.918566999957,572.918566999957,573.9188748999732,573.9188748999732,574.4234135999577,c,1,0.49009119998663664,None,997103,001,2024-10-17_19h57.37.916,sequence learning,2024.1.5,None,2024-10-17 19h57.47.861192 +0530,
150,v,,,,,9,3,39,1,574.4357771000359,,574.4243584000506,574.4357771000359,575.4356958999997,575.4356958999997,575.4356958999997,575.4356958999997,575.4356958999997,576.4358579999534,576.4358579999534,576.8230685000308,v,1,0.375975500093773,None,997103,001,2024-10-17_19h57.37.916,sequence learning,2024.1.5,None,2024-10-17 19h57.47.861192 +0530,
150,v,,,,,10,0,40,1,576.8357450000476,,576.8239764999598,576.8357450000476,577.8356710999506,577.8356710999506,577.8356710999506,577.8356710999506,577.8356710999506,578.8355321999406,578.8355321999406,579.5235688999528,v,1,0.6781602000119165,None,997103,001,2024-10-17_19h57.37.916,sequence learning,2024.1.5,None,2024-10-17 19h57.47.861192 +0530,
-150,z,,,,,10,1,41,3,579.5360391000286,,579.5245087000076,579.5360391000286,580.5358352999901,580.5358352999901,580.5358352999901,580.5358352999901,580.5358352999901,581.535601099953,581.535601099953,581.8896226000506,z,1,0.3435938999755308,None,997103,001,2024-10-17_19h57.37.916,sequence learning,2024.1.5,None,2024-10-17 19h57.47.861192 +0530,
-50,x,,,,,10,2,42,0,581.9025283999508,,581.890581100015,581.9025283999508,582.9022554999683,582.9022554999683,582.9022554999683,582.9022554999683,582.9022554999683,583.9025939999847,583.9025939999847,584.4067485999549,x,1,0.49402500002179295,None,997103,001,2024-10-17_19h57.37.916,sequence learning,2024.1.5,None,2024-10-17 19h57.47.861192 +0530,
50,c,,,,,10,3,43,2,584.4191655999748,,584.4077001999831,584.4191655999748,585.4189702000003,585.4189702000003,585.4189702000003,585.4189702000003,585.4189702000003,586.419153099996,586.419153099996,587.1733685999643,c,1,0.7469857999822125,None,997103,001,2024-10-17_19h57.37.916,sequence learning,2024.1.5,None,2024-10-17 19h57.47.861192 +0530,
-50,x,,,,,11,0,44,0,587.1860930999974,,587.1743092000252,587.1860930999974,588.1862703999504,588.1862703999504,588.1862703999504,588.1862703999504,588.1862703999504,589.1862000999972,589.1862000999972,589.6769985000137,z,0,0.46633620001375675,None,997103,001,2024-10-17_19h57.37.916,sequence learning,2024.1.5,None,2024-10-17 19h57.47.861192 +0530,
-150,z,,,,,11,1,45,3,589.6860910999821,,589.679173600045,589.6860910999821,590.6857159000356,590.6857159000356,590.6857159000356,590.6857159000356,590.6857159000356,591.6858096000506,591.6858096000506,592.6240433000494,z,1,0.9320824999595061,None,997103,001,2024-10-17_19h57.37.916,sequence learning,2024.1.5,None,2024-10-17 19h57.47.861192 +0530,
150,v,,,,,11,2,46,1,592.6362252000254,,592.6249842999969,592.6362252000254,593.6359126999741,593.6359126999741,593.6359126999741,593.6359126999741,593.6359126999741,594.6362517999951,594.6362517999951,595.3568129000487,v,1,0.7090163000393659,None,997103,001,2024-10-17_19h57.37.916,sequence learning,2024.1.5,None,2024-10-17 19h57.47.861192 +0530,
50,c,,,,,11,3,47,2,595.3695355999516,,595.3578160000034,595.3695355999516,596.3693241999717,596.3693241999717,596.3693241999717,596.3693241999717,596.3693241999717,597.369551199954,597.369551199954,598.0072396999458,c,1,0.629139699973166,None,997103,001,2024-10-17_19h57.37.916,sequence learning,2024.1.5,None,2024-10-17 19h57.47.861192 +0530,
50,c,,,,,12,0,48,2,598.0197750999359,,598.0082523999736,598.0197750999359,599.019817500026,599.019817500026,599.019817500026,599.019817500026,599.019817500026,600.0524578000186,600.0524578000186,600.7077104999917,c,1,0.6442701999330893,None,997103,001,2024-10-17_19h57.37.916,sequence learning,2024.1.5,None,2024-10-17 19h57.47.861192 +0530,
150,v,,,,,12,1,49,1,600.7196941999719,,600.708637899952,600.7196941999719,601.7198053000029,601.7198053000029,601.7198053000029,601.7198053000029,601.7198053000029,602.7196262000361,602.7196262000361,603.3240458000218,v,1,0.5945551000768319,None,997103,001,2024-10-17_19h57.37.916,sequence learning,2024.1.5,None,2024-10-17 19h57.47.861192 +0530,
-50,x,,,,,12,2,50,0,603.3364603000227,,603.3250738000497,603.3364603000227,604.3363239000319,604.3363239000319,604.3363239000319,604.3363239000319,604.3363239000319,605.3366138000274,605.3366138000274,605.9603533999762,x,1,0.5905745999189094,None,997103,001,2024-10-17_19h57.37.916,sequence learning,2024.1.5,None,2024-10-17 19h57.47.861192 +0530,
-150,z,,,,,12,3,51,3,605.9700876999414,,605.9623042000458,605.9700876999414,606.9695763000054,606.9695763000054,606.9695763000054,606.9695763000054,606.9695763000054,607.969710299978,607.969710299978,608.3905437999638,z,1,0.40685609995853156,None,997103,001,2024-10-17_19h57.37.916,sequence learning,2024.1.5,None,2024-10-17 19h57.47.861192 +0530,
-150,z,,,,,13,0,52,3,608.4032266000286,,608.3916787999915,608.4032266000286,609.4032858000137,609.4032858000137,609.4032858000137,609.4032858000137,609.4032858000137,610.4194489000365,610.4194489000365,610.8408329000231,z,1,0.4091289999196306,None,997103,001,2024-10-17_19h57.37.916,sequence learning,2024.1.5,None,2024-10-17 19h57.47.861192 +0530,
-50,x,,,,,13,1,53,0,610.8536031999392,,610.841775799985,610.8536031999392,611.8534561999841,611.8534561999841,611.8534561999841,611.8534561999841,611.8534561999841,612.852840699954,612.852840699954,613.6577730999561,x,1,0.7985088999848813,None,997103,001,2024-10-17_19h57.37.916,sequence learning,2024.1.5,None,2024-10-17 19h57.47.861192 +0530,
150,v,,,,,13,2,54,1,613.670190099976,,613.6586919999681,613.670190099976,614.6698327000486,614.6698327000486,614.6698327000486,614.6698327000486,614.6698327000486,615.6700033999514,615.6700033999514,616.3245481000049,v,1,0.639486400061287,None,997103,001,2024-10-17_19h57.37.916,sequence learning,2024.1.5,None,2024-10-17 19h57.47.861192 +0530,
50,c,,,,,13,3,55,2,616.3369247999508,,616.3254549000412,616.3369247999508,617.3366228999803,617.3366228999803,617.3366228999803,617.3366228999803,617.3366228999803,618.336726599955,618.336726599955,618.9240485000191,c,1,0.5767362000187859,None,997103,001,2024-10-17_19h57.37.916,sequence learning,2024.1.5,None,2024-10-17 19h57.47.861192 +0530,
50,c,,,,,14,0,56,2,618.9368567999918,,618.9250446000369,618.9368567999918,619.9368511999492,619.9368511999492,619.9368511999492,619.9368511999492,619.9368511999492,620.9697884999914,620.9697884999914,621.7256929000141,c,1,0.7532831999706104,None,997103,001,2024-10-17_19h57.37.916,sequence learning,2024.1.5,None,2024-10-17 19h57.47.861192 +0530,
-150,z,,,,,14,1,57,3,621.7372241000412,,621.7270938999718,621.7372241000412,622.7368422000436,622.7368422000436,622.7368422000436,622.7368422000436,622.7368422000436,623.7531497000018,623.7531497000018,624.328033400001,z,1,0.5534507000120357,None,997103,001,2024-10-17_19h57.37.916,sequence learning,2024.1.5,None,2024-10-17 19h57.47.861192 +0530,
150,v,,,,,14,2,58,1,624.3373274999904,,624.3300810999935,624.3373274999904,625.3370910999365,625.3370910999365,625.3370910999365,625.3370910999365,625.3370910999365,626.3367535000434,626.3367535000434,626.9742788999574,v,1,0.6279501001117751,None,997103,001,2024-10-17_19h57.37.916,sequence learning,2024.1.5,None,2024-10-17 19h57.47.861192 +0530,
-50,x,,,,,14,3,59,0,626.9867860999657,,626.9752391999355,626.9867860999657,627.9867741999915,627.9867741999915,627.9867741999915,627.9867741999915,627.9867741999915,628.9870850000298,628.9870850000298,629.5915008999873,x,1,0.5987356000114232,None,997103,001,2024-10-17_19h57.37.916,sequence learning,2024.1.5,None,2024-10-17 19h57.47.861192 +0530,
-150,z,,,,,15,0,60,3,629.6036229999736,,629.5924613999669,629.6036229999736,630.6200207000365,630.6200207000365,630.6200207000365,630.6200207000365,630.6200207000365,631.6036940000486,631.6036940000486,632.124621200026,z,1,0.5086482999613509,None,997103,001,2024-10-17_19h57.37.916,sequence learning,2024.1.5,None,2024-10-17 19h57.47.861192 +0530,
-50,x,,,,,15,1,61,0,632.1371329999529,,632.1256294000195,632.1371329999529,633.1371612000512,633.1371612000512,633.1371612000512,633.1371612000512,633.1371612000512,634.1535530999536,634.1535530999536,634.8414732000092,x,1,0.6726232999935746,None,997103,001,2024-10-17_19h57.37.916,sequence learning,2024.1.5,None,2024-10-17 19h57.47.861192 +0530,
150,v,,,,,15,2,62,1,634.8539403999457,,634.8424193999963,634.8539403999457,635.8537279999582,635.8537279999582,635.8537279999582,635.8537279999582,635.8537279999582,636.8541330000153,636.8541330000153,637.3749779999489,v,1,0.5052844999590889,None,997103,001,2024-10-17_19h57.37.916,sequence learning,2024.1.5,None,2024-10-17 19h57.47.861192 +0530,
50,c,,,,,15,3,63,2,637.3872107999632,,637.3759110999526,637.3872107999632,638.3872716999613,638.3872716999613,638.3872716999613,638.3872716999613,638.3872716999613,639.3872446999885,639.3872446999885,640.3120961999521,c,1,0.9044062000466511,None,997103,001,2024-10-17_19h57.37.916,sequence learning,2024.1.5,None,2024-10-17 19h57.47.861192 +0530,
-150,z,,,,,16,0,64,3,640.3368064999813,,640.314337400021,640.3368064999813,641.3211503999773,641.3211503999773,641.3211503999773,641.3211503999773,641.3371158000082,642.3537060000235,642.3537060000235,642.9948608999839,z,1,0.612335600075312,None,997103,001,2024-10-17_19h57.37.916,sequence learning,2024.1.5,None,2024-10-17 19h57.47.861192 +0530,
50,c,,,,,16,1,65,2,643.0042039999971,,642.9971611000365,643.0042039999971,644.004439100041,644.004439100041,644.004439100041,644.004439100041,644.004439100041,645.0042579999426,645.0042579999426,645.5752042999957,c,1,0.5609799000667408,None,997103,001,2024-10-17_19h57.37.916,sequence learning,2024.1.5,None,2024-10-17 19h57.47.861192 +0530,
-50,x,,,,,16,2,66,0,645.5873760000104,,645.5761372999987,645.5873760000104,646.5874198999954,646.5874198999954,646.5874198999954,646.5874198999954,646.5874198999954,647.5875068999594,647.5875068999594,648.2585259999614,x,1,0.6623069000197574,None,997103,001,2024-10-17_19h57.37.916,sequence learning,2024.1.5,None,2024-10-17 19h57.47.861192 +0530,
150,v,,,,,16,3,67,1,648.2707433999749,,648.25946630002,648.2707433999749,649.2707000999944,649.2707000999944,649.2707000999944,649.2707000999944,649.2707000999944,650.2871026999783,650.2871026999783,650.8957138999831,v,1,0.5783002999378368,None,997103,001,2024-10-17_19h57.37.916,sequence learning,2024.1.5,None,2024-10-17 19h57.47.861192 +0530,
150,v,,,,,17,0,68,1,650.920430899947,,650.8977670000168,650.920430899947,651.9043874000199,651.9043874000199,651.9043874000199,651.9043874000199,651.9209164000349,652.9210833000252,652.9210833000252,653.4255599000026,v,1,0.5011511000338942,None,997103,001,2024-10-17_19h57.37.916,sequence learning,2024.1.5,None,2024-10-17 19h57.47.861192 +0530,
50,c,,,,,17,1,69,2,653.4376445999369,,653.4265642999671,653.4376445999369,654.4375744999852,654.4375744999852,654.4375744999852,654.4375744999852,654.4375744999852,655.437810900039,655.437810900039,656.4453353999415,c,1,0.9985100999474525,None,997103,001,2024-10-17_19h57.37.916,sequence learning,2024.1.5,None,2024-10-17 19h57.47.861192 +0530,
-150,z,,,,,17,2,70,3,656.4546943999594,,656.4476035999833,656.4546943999594,657.4707174999639,657.4707174999639,657.4707174999639,657.4707174999639,657.4707174999639,658.4707044999814,658.4707044999814,659.1797359000193,z,1,0.686871699988842,None,997103,001,2024-10-17_19h57.37.916,sequence learning,2024.1.5,None,2024-10-17 19h57.47.861192 +0530,
-50,x,,,,,17,3,71,0,659.2042324000504,,659.1819167999784,659.2042324000504,660.1879534999607,660.1879534999607,660.1879534999607,660.1879534999607,660.2045808000257,661.2208697999595,661.2208697999595,661.7416256000288,x,1,0.4950140999862924,None,997103,001,2024-10-17_19h57.37.916,sequence learning,2024.1.5,None,2024-10-17 19h57.47.861192 +0530,
50,c,,,,,18,0,72,2,661.7545386999846,,661.7425990999909,661.7545386999846,662.7545097999973,662.7545097999973,662.7545097999973,662.7545097999973,662.7545097999973,663.7542649999959,663.7542649999959,664.3447684999555,c,1,0.565104000037536,None,997103,001,2024-10-17_19h57.37.916,sequence learning,2024.1.5,None,2024-10-17 19h57.47.861192 +0530,
-50,x,,,,,18,1,73,0,664.3545564999804,,664.3466473999433,664.3545564999804,665.35460099997,665.35460099997,665.35460099997,665.35460099997,665.35460099997,666.3877140999539,666.3877140999539,667.5932076999452,x,1,1.1931429000105709,None,997103,001,2024-10-17_19h57.37.916,sequence learning,2024.1.5,None,2024-10-17 19h57.47.861192 +0530,
150,v,,,,,18,2,74,1,667.6044136999408,,667.5945298000006,667.6044136999408,668.60470539995,668.60470539995,668.60470539995,668.60470539995,668.60470539995,669.6212687999941,669.6212687999941,670.4423274999717,v,1,0.8046710999915376,None,997103,001,2024-10-17_19h57.37.916,sequence learning,2024.1.5,None,2024-10-17 19h57.47.861192 +0530,
-150,z,,,,,18,3,75,3,670.4548302999465,,670.4433472999372,670.4548302999465,671.4551427999977,671.4551427999977,671.4551427999977,671.4551427999977,671.4551427999977,672.454889500048,672.454889500048,673.0753256999888,z,1,0.6144304999615997,None,997103,001,2024-10-17_19h57.37.916,sequence learning,2024.1.5,None,2024-10-17 19h57.47.861192 +0530,
-150,z,,,,,19,0,76,3,673.0877380999736,,673.0763095000293,673.0877380999736,674.0880148999859,674.0880148999859,674.0880148999859,674.0880148999859,674.0880148999859,675.0883090000134,675.0883090000134,675.7091614999808,z,1,0.6065833000466228,None,997103,001,2024-10-17_19h57.37.916,sequence learning,2024.1.5,None,2024-10-17 19h57.47.861192 +0530,
150,v,,,,,19,1,77,1,675.7215802000137,,675.710110199987,675.7215802000137,676.7214047999587,676.7214047999587,676.7214047999587,676.7214047999587,676.7214047999587,677.7218281000387,677.7218281000387,678.6961520999903,v,1,0.9666453999234363,None,997103,001,2024-10-17_19h57.37.916,sequence learning,2024.1.5,None,2024-10-17 19h57.47.861192 +0530,
-50,x,,,,,19,2,78,0,678.7050240000244,,678.6980832000263,678.7050240000244,679.7049155000132,679.7049155000132,679.7049155000132,679.7049155000132,679.7049155000132,680.7052011999767,680.7052011999767,681.5094836000353,x,1,0.7979119999799877,None,997103,001,2024-10-17_19h57.37.916,sequence learning,2024.1.5,None,2024-10-17 19h57.47.861192 +0530,
50,c,,,,,19,3,79,2,681.5216198000126,,681.5104335000506,681.5216198000126,682.5218945000088,682.5218945000088,682.5218945000088,682.5218945000088,682.5218945000088,683.5217329999432,683.5217329999432,684.175892099971,c,1,0.6464653000002727,None,997103,001,2024-10-17_19h57.37.916,sequence learning,2024.1.5,None,2024-10-17 19h57.47.861192 +0530,
-50,x,,,,,20,0,80,0,684.1883419000078,,684.1768776000245,684.1883419000078,685.1885063999798,685.1885063999798,685.1885063999798,685.1885063999798,685.1885063999798,686.1882542000385,686.1882542000385,686.8263661999954,x,1,0.6246036998927593,None,997103,001,2024-10-17_19h57.37.916,sequence learning,2024.1.5,None,2024-10-17 19h57.47.861192 +0530,
150,v,,,,,20,1,81,1,686.8385509999935,,686.8273381999461,686.8385509999935,687.8383943999652,687.8383943999652,687.8383943999652,687.8383943999652,687.8383943999652,688.8385039999848,688.8385039999848,689.5595542000374,v,1,0.7106330000096932,None,997103,001,2024-10-17_19h57.37.916,sequence learning,2024.1.5,None,2024-10-17 19h57.47.861192 +0530,
50,c,,,,,20,2,82,2,689.5721457999898,,689.5605421999935,689.5721457999898,690.5716899000108,690.5716899000108,690.5716899000108,690.5716899000108,690.5716899000108,691.5720470999368,691.5720470999368,692.2264126000227,c,1,0.6511345999315381,None,997103,001,2024-10-17_19h57.37.916,sequence learning,2024.1.5,None,2024-10-17 19h57.47.861192 +0530,
